,Timestamp,Acc_X,Acc_Y,Acc_Z,AngV_X,AngV_Y,AngV_Z,Mag_X,Mag_Y,Mag_Z,Orin_X,Orin_Y,Orin_Z,Activity
0,2021-02-15 13:50:21.550,-0.158969,2.803969,9.085058,-0.043932,-0.04513,0.045454,-19.5975,-5.601242,-41.832703,-90.007644,-15.340794,-0.056757,Sitting
1,2021-02-15 13:50:21.600,0.105081,2.691852,9.735305,-0.01515,0.017822,-0.039482,-19.790108,-5.628992,-41.756622,-90.03067,-15.489331,-0.163034,Sitting
2,2021-02-15 13:50:21.650,-0.065414,2.734813,9.690698,0.02921,-0.072317,0.00618,-19.635098,-5.536165,-42.205139,-90.047929,-15.306761,-0.206336,Sitting
3,2021-02-15 13:50:21.700,0.2883,2.505939,9.488469,0.00731,-0.021133,-0.040295,-19.892584,-5.790623,-41.786987,-90.010922,-15.431007,-0.321902,Sitting
4,2021-02-15 13:50:21.751,-0.041763,2.713407,9.748029,0.076889,-0.03331,-0.016419,-19.826864,-5.771675,-41.874054,-90.017554,-15.39774,-0.532236,Sitting
5,2021-02-15 13:50:21.801,0.150737,2.682122,9.428893,-0.03194,0.00178,-0.008177,-19.971621,-5.804798,-42.039185,-89.883691,-15.565078,-0.516449,Sitting
6,2021-02-15 13:50:21.851,0.23561,2.647993,9.456435,-0.009199,0.02231,-0.011054,-20.096054,-5.807079,-41.832123,-89.897463,-15.515549,-0.656489,Sitting
7,2021-02-15 13:50:21.901,0.092508,2.675686,9.61286,-0.040897,-0.000714,-0.014035,-20.087244,-5.793457,-41.709351,-89.858385,-15.528812,-0.575887,Sitting
8,2021-02-15 13:50:21.951,0.110171,2.624492,9.596095,-0.015436,0.025441,-0.014469,-20.080072,-5.705484,-41.591064,-89.87541,-15.398233,-0.635025,Sitting
9,2021-02-15 13:50:22.002,0.069605,2.627935,9.643696,-0.021856,0.002113,-0.001136,-20.054253,-5.826685,-41.786621,-89.810833,-15.356456,-0.59177,Sitting
10,2021-02-15 13:50:22.052,0.190703,2.544409,9.668245,0.011806,0.048423,-0.030012,-20.049505,-5.559439,-41.621277,-89.829333,-15.272722,-0.60398,Sitting
11,2021-02-15 13:50:22.102,-0.003593,2.647395,9.493408,-0.029958,0.002332,-0.002338,-19.884872,-5.476885,-41.704071,-89.80599,-15.241649,-0.489483,Sitting
12,2021-02-15 13:50:22.152,0.151335,2.621349,9.789493,0.029838,0.053683,-0.014719,-19.822382,-5.610691,-41.657104,-89.804801,-15.219878,-0.473203,Sitting
13,2021-02-15 13:50:22.202,0.001198,2.649939,9.461974,-0.023479,0.007812,0.001966,-19.838182,-5.610109,-41.618317,-89.792785,-15.166025,-0.381029,Sitting
14,2021-02-15 13:50:22.253,0.10598,2.589914,9.583072,-0.008323,0.011979,-0.003872,-19.782375,-5.35709,-41.759705,-89.790095,-15.204455,-0.333623,Sitting
15,2021-02-15 13:50:22.303,0.093406,2.576592,9.561666,-0.028172,0.035683,-0.010081,-19.671062,-5.413792,-41.869171,-89.836276,-15.137242,-0.352295,Sitting
16,2021-02-15 13:50:22.353,0.089214,2.582729,9.618099,-0.019322,0.034388,-0.025211,-19.783085,-5.412476,-42.041504,-89.844895,-15.078915,-0.278481,Sitting
17,2021-02-15 13:50:22.403,-0.028291,2.541864,9.647139,-0.006695,0.009277,-0.013338,-19.73732,-5.319189,-41.700409,-89.840873,-15.006886,-0.229012,Sitting
18,2021-02-15 13:50:22.453,0.025896,2.523153,9.48757,-0.040643,0.010526,-0.001958,-19.63933,-5.41168,-41.582611,-89.808692,-14.991601,-0.16776,Sitting
19,2021-02-15 13:50:22.504,-0.013173,2.613415,9.684112,-0.071654,0.017754,-0.013774,-19.616716,-5.371965,-41.800232,-89.836572,-14.896068,-0.184353,Sitting
20,2021-02-15 13:50:22.554,-0.017663,2.554139,9.806857,0.041356,0.011872,-0.000468,-19.656647,-5.349783,-41.812592,-89.815602,-14.710554,-0.148399,Sitting
21,2021-02-15 13:50:22.604,0.016765,2.483785,9.392518,-0.044974,0.011859,-0.006741,-19.561874,-4.97711,-41.51004,-89.839266,-14.688167,-0.105042,Sitting
22,2021-02-15 13:50:22.654,0.00958,2.475702,9.736653,-0.046757,-0.008962,-0.007147,-19.654688,-4.99221,-41.727386,-89.850179,-14.700078,-0.114329,Sitting
23,2021-02-15 13:50:22.704,0.083227,2.390529,9.699081,-0.005376,0.010138,-0.021274,-19.629866,-5.110456,-41.803528,-89.851678,-14.509962,-0.11232,Sitting
24,2021-02-15 13:50:22.755,-0.006437,2.514771,9.60792,-0.019803,0.000987,-0.007325,-19.760973,-4.880991,-41.770935,-89.84572,-14.4524,-0.129696,Sitting
25,2021-02-15 13:50:22.805,0.096998,2.453248,9.772129,0.03169,-0.001354,-0.021098,-19.803553,-4.858736,-41.972382,-89.839101,-14.405459,-0.129297,Sitting
26,2021-02-15 13:50:22.855,-0.000748,2.486479,9.534423,-0.007599,0.010552,-0.011368,-19.63512,-4.892965,-42.023041,-89.839967,-14.386017,-0.139872,Sitting
27,2021-02-15 13:50:22.905,-0.024549,2.455793,9.695338,-0.002207,-0.012102,-0.005145,-19.588898,-5.109291,-41.804718,-89.815088,-14.416052,-0.15367,Sitting
28,2021-02-15 13:50:22.955,0.013023,2.462829,9.638756,0.00451,-0.001997,-0.007804,-19.647028,-4.953756,-41.674988,-89.813828,-14.376312,-0.177524,Sitting
29,2021-02-15 13:50:23.006,0.040416,2.423909,9.672436,0.001586,-0.000136,-0.005543,-19.700575,-4.885771,-41.70874,-89.817431,-14.368872,-0.215669,Sitting
30,2021-02-15 13:50:23.056,0.047002,2.470014,9.621542,-0.003842,0.011551,-0.004609,-19.74107,-4.775316,-41.809753,-89.818678,-14.329272,-0.202932,Sitting
31,2021-02-15 13:50:23.106,0.052092,2.43798,9.725875,0.027104,0.002648,-0.007678,-19.786026,-4.639404,-42.078979,-89.862993,-14.324658,-0.211209,Sitting
32,2021-02-15 13:50:23.156,0.035027,2.466571,9.53592,-0.011213,-0.010636,-0.001211,-19.7108,-4.912989,-41.965546,-89.879014,-14.348566,-0.218177,Sitting
33,2021-02-15 13:50:23.206,0.067061,2.416126,9.686656,-0.012868,0.00624,-0.014454,-19.757252,-4.894875,-41.819489,-89.895434,-14.365503,-0.243828,Sitting
34,2021-02-15 13:50:23.257,0.049098,2.511328,9.662856,0.027328,0.004596,-0.010704,-19.677158,-4.869705,-41.728485,-89.919487,-14.259362,-0.264577,Sitting
35,2021-02-15 13:50:23.307,0.037722,2.465074,9.600735,0.009239,0.000636,-0.014239,-19.734913,-4.776445,-41.952362,-89.906367,-14.316111,-0.256663,Sitting
36,2021-02-15 13:50:23.357,0.047302,2.435735,9.705966,0.022074,-0.000325,-0.034951,-19.784275,-4.650888,-41.961456,-89.917567,-14.331924,-0.25838,Sitting
37,2021-02-15 13:50:23.407,-0.027243,2.45714,9.567804,0.010891,0.007919,-0.002946,-19.691301,-4.822454,-41.744324,-89.873796,-14.374357,-0.257961,Sitting
38,2021-02-15 13:50:23.458,0.099543,2.493664,9.610166,-0.022707,-0.008358,-0.00295,-19.609756,-4.953909,-41.910675,-89.850008,-14.435676,-0.240886,Sitting
39,2021-02-15 13:50:23.508,0.089364,2.46702,9.681567,0.017001,0.009714,-0.024776,-19.704035,-5.143093,-41.872559,-89.860002,-14.367552,-0.287712,Sitting
40,2021-02-15 13:50:23.558,0.03353,2.514321,9.510473,-0.023212,-0.008582,-0.00667,-19.714745,-5.012384,-41.994568,-89.830295,-14.358259,-0.268361,Sitting
41,2021-02-15 13:50:23.608,0.034728,2.40939,9.712702,0.008546,0.01487,-0.016925,-19.877722,-4.853338,-41.655182,-89.822515,-14.348448,-0.331297,Sitting
42,2021-02-15 13:50:23.658,0.017065,2.445315,9.642947,0.023152,-0.001378,-0.015965,-19.761999,-4.66617,-41.801758,-89.820574,-14.311985,-0.329211,Sitting
43,2021-02-15 13:50:23.709,0.079036,2.445016,9.642349,0.014436,0.010189,-0.004014,-19.691841,-4.760748,-41.578552,-89.813856,-14.375488,-0.317872,Sitting
44,2021-02-15 13:50:23.759,0.011526,2.488575,9.678124,0.019877,0.015144,-0.005814,-19.808172,-4.841251,-41.647522,-89.817582,-14.383519,-0.332827,Sitting
45,2021-02-15 13:50:23.809,0.055385,2.469115,9.601783,0.00221,0.005969,-0.015769,-19.66317,-4.946514,-41.884827,-89.816425,-14.425397,-0.294335,Sitting
46,2021-02-15 13:50:23.859,-0.04311,2.469714,9.62229,-0.004565,-0.004182,0.007874,-19.895174,-4.766033,-42.080353,-89.815385,-14.432131,-0.287639,Sitting
47,2021-02-15 13:50:23.909,0.147892,2.45714,9.729917,0.027686,0.004169,-0.03084,-19.855322,-4.699795,-41.983307,-89.855449,-14.406098,-0.304424,Sitting
48,2021-02-15 13:50:23.960,-0.007335,2.486779,9.572294,0.00403,0.01078,-0.008152,-19.929995,-4.928968,-41.878265,-89.845052,-14.412146,-0.321072,Sitting
49,2021-02-15 13:50:24.010,0.045655,2.537074,9.622889,0.002891,0.01466,-0.004763,-19.904413,-4.694826,-41.903198,-89.839656,-14.450021,-0.309164,Sitting
50,2021-02-15 13:50:24.060,0.068108,2.450404,9.67049,0.005808,0.010944,-0.014722,-19.869677,-4.714838,-41.833405,-89.868358,-14.427195,-0.283056,Sitting
51,2021-02-15 13:50:24.110,0.035626,2.409988,9.599538,0.01085,0.00736,-0.009562,-19.744492,-4.77478,-42.02359,-89.870463,-14.432679,-0.272577,Sitting
52,2021-02-15 13:50:24.160,0.044308,2.47166,9.656868,-0.001409,0.017474,-0.009552,-19.740019,-4.897066,-41.513824,-89.85649,-14.466408,-0.253451,Sitting
53,2021-02-15 13:50:24.211,0.065863,2.506687,9.614507,0.01975,0.010576,-0.017031,-19.874847,-4.967356,-42.012024,-89.860478,-14.431206,-0.24301,Sitting
54,2021-02-15 13:50:24.261,0.035925,2.527344,9.594149,0.015473,0.013431,-0.004143,-19.639803,-4.825424,-41.843903,-89.864633,-14.456801,-0.240137,Sitting
55,2021-02-15 13:50:24.311,0.010179,2.507585,9.681118,0.009126,0.019727,-0.011881,-19.763712,-4.953129,-41.674011,-89.875092,-14.488914,-0.217905,Sitting
56,2021-02-15 13:50:24.361,-0.007634,2.451153,9.611064,-0.011632,-0.006958,-0.017781,-19.812401,-4.912455,-41.691193,-89.887509,-14.493857,-0.190007,Sitting
57,2021-02-15 13:50:24.411,-0.010778,2.485581,9.662856,0.012083,0.001032,-0.010836,-19.598726,-5.06288,-41.842682,-89.876523,-14.490693,-0.208104,Sitting
58,2021-02-15 13:50:24.462,0.039368,2.488126,9.640253,0.014476,0.005446,0.002273,-19.73378,-4.883776,-41.856812,-89.848066,-14.486935,-0.215071,Sitting
59,2021-02-15 13:50:24.512,0.017065,2.511028,9.750424,0.035941,0.012767,0.003304,-19.721992,-4.92054,-41.812469,-89.872211,-14.494604,-0.232602,Sitting
60,2021-02-15 13:50:24.562,0.013921,2.458038,9.582773,0.027947,-0.004275,0.003178,-19.885019,-5.006155,-41.627197,-89.898725,-14.53484,-0.21325,Sitting
61,2021-02-15 13:50:24.612,0.084574,2.530787,9.572294,-0.003998,0.012304,-0.015813,-19.920118,-4.957962,-41.874329,-89.942966,-14.633411,-0.225526,Sitting
62,2021-02-15 13:50:24.662,-0.035177,2.563719,9.700428,0.02781,0.015195,-0.009291,-19.761192,-4.917974,-41.809479,-89.950095,-14.595987,-0.265556,Sitting
63,2021-02-15 13:50:24.713,0.009879,2.564018,9.573043,0.007476,-0.012144,-0.003518,-19.721071,-5.02244,-41.820618,-89.945806,-14.631796,-0.231818,Sitting
64,2021-02-15 13:50:24.763,0.114512,2.479893,9.628577,0.018644,0.009003,-0.02019,-19.62888,-5.324018,-41.852417,-89.970959,-14.682317,-0.274745,Sitting
65,2021-02-15 13:50:24.813,0.04326,2.535128,9.600436,0.004114,-0.001335,0.000131,-19.803106,-5.14333,-41.916595,-89.929486,-14.715154,-0.255918,Sitting
66,2021-02-15 13:50:24.863,0.146845,2.483635,9.619297,0.018987,0.007517,-0.025608,-19.657202,-5.075087,-41.905212,-89.957768,-14.725672,-0.275223,Sitting
67,2021-02-15 13:50:24.913,0.025148,2.569407,9.575587,-0.003064,0.003404,-0.009338,-19.758995,-5.091888,-41.787842,-89.968604,-14.748826,-0.295631,Sitting
68,2021-02-15 13:50:24.964,-0.00479,2.531835,9.739197,0.030799,0.005707,-0.013234,-19.849899,-4.792986,-42.019135,-89.974298,-14.755031,-0.295426,Sitting
69,2021-02-15 13:50:25.014,0.063019,2.544708,9.596394,0.014938,-0.010702,-0.0146,-19.661444,-5.119986,-42.11322,-89.989269,-14.764191,-0.295201,Sitting
70,2021-02-15 13:50:25.064,0.066162,2.537823,9.560619,0.006802,0.005898,-0.003344,-19.841103,-5.066866,-41.841217,-89.977755,-14.813409,-0.310164,Sitting
71,2021-02-15 13:50:25.114,0.060325,2.569706,9.673783,-0.00432,0.002107,-0.008648,-19.946613,-5.049562,-41.935516,-90.008835,-14.83239,-0.329919,Sitting
72,2021-02-15 13:50:25.164,0.071701,2.508035,9.574839,0.035617,-0.002973,-0.02147,-19.950777,-5.030565,-41.927277,-90.032334,-14.801536,-0.326599,Sitting
73,2021-02-15 13:50:25.215,0.035776,2.576442,9.595496,-0.003395,0.011135,-0.003774,-19.945587,-5.086132,-42.143982,-90.021876,-14.893503,-0.348784,Sitting
74,2021-02-15 13:50:25.265,0.074994,2.577191,9.725875,0.025696,-0.017877,-0.031222,-19.874714,-5.138943,-41.793732,-90.038761,-14.865893,-0.375266,Sitting
75,2021-02-15 13:50:25.315,0.077988,2.485432,9.490415,0.010901,-0.00415,-0.008055,-19.960274,-5.255535,-41.865601,-90.021357,-14.898292,-0.382226,Sitting
76,2021-02-15 13:50:25.365,0.054786,2.681374,9.626332,0.013601,0.015728,-0.005102,-20.038513,-5.1224,-41.782013,-90.011102,-14.924704,-0.451573,Sitting
77,2021-02-15 13:50:25.415,0.104034,2.544259,9.599687,0.024234,-0.005414,-0.014558,-19.975313,-5.27807,-41.994873,-90.036648,-14.949604,-0.428761,Sitting
78,2021-02-15 13:50:25.466,0.048948,2.535877,9.534872,0.002056,0.004746,-0.003371,-20.039486,-5.238605,-42.075409,-90.04921,-14.984676,-0.458708,Sitting
79,2021-02-15 13:50:25.516,0.099244,2.568958,9.713451,0.017522,-0.001022,-0.009746,-20.081842,-5.124962,-41.798828,-90.053239,-15.033612,-0.463784,Sitting
80,2021-02-15 13:50:25.566,0.084125,2.586172,9.540411,-0.00591,-0.008464,-0.009156,-20.186762,-5.104557,-41.792938,-90.088289,-15.012249,-0.505366,Sitting
81,2021-02-15 13:50:25.616,0.119003,2.573598,9.731114,0.038629,0.008025,-0.013782,-20.166855,-5.102192,-41.683838,-90.094994,-15.03745,-0.519732,Sitting
82,2021-02-15 13:50:25.667,0.082628,2.620301,9.470955,0.005984,-0.000444,-0.010086,-20.207817,-5.203262,-41.814392,-90.112074,-15.025292,-0.540134,Sitting
83,2021-02-15 13:50:25.717,0.074545,2.624642,9.662557,0.009098,-0.008836,-0.004918,-20.03664,-5.333561,-41.764587,-90.106039,-15.105338,-0.557985,Sitting
84,2021-02-15 13:50:25.767,0.136516,2.600093,9.56496,-0.000298,0.01575,-0.011342,-20.069359,-5.202663,-41.865234,-90.107886,-15.090807,-0.575699,Sitting
85,2021-02-15 13:50:25.817,0.12005,2.587669,9.606274,0.019072,0.000627,-0.016373,-19.998493,-5.35318,-41.892517,-90.118208,-15.102356,-0.590316,Sitting
86,2021-02-15 13:50:25.867,0.045505,2.623145,9.589059,-0.001427,0.003461,-0.000519,-20.040174,-5.489792,-41.730164,-90.118177,-15.143383,-0.599992,Sitting
87,2021-02-15 13:50:25.918,0.142504,2.591112,9.622739,0.028062,0.001479,-0.01098,-20.117315,-5.295506,-41.946991,-90.12555,-15.140169,-0.609988,Sitting
88,2021-02-15 13:50:25.968,0.1202,2.611918,9.560619,-0.004818,0.008729,-0.010205,-20.111023,-5.255373,-41.640747,-90.148005,-15.192245,-0.62645,Sitting
89,2021-02-15 13:50:26.018,0.070204,2.642305,9.562115,0.002607,0.002003,-0.008566,-20.203844,-5.218214,-41.905914,-90.172713,-15.182807,-0.623026,Sitting
90,2021-02-15 13:50:26.068,0.111219,2.644401,9.639804,0.000101,0.016084,-0.006501,-20.069284,-5.356335,-41.625519,-90.157053,-15.186142,-0.644888,Sitting
91,2021-02-15 13:50:26.118,0.087119,2.647544,9.563463,0.015962,0.010012,-0.007051,-20.174536,-5.303684,-41.744385,-90.18649,-15.158577,-0.646216,Sitting
92,2021-02-15 13:50:26.169,0.088017,2.585723,9.562565,-0.006169,-0.000832,-0.007558,-20.000713,-5.517788,-42.00473,-90.177223,-15.208582,-0.62154,Sitting
93,2021-02-15 13:50:26.219,0.139061,2.588866,9.649833,-2.9e-05,0.004343,-0.020047,-20.218184,-5.27,-41.869385,-90.212794,-15.215078,-0.65542,Sitting
94,2021-02-15 13:50:26.269,0.087718,2.603386,9.580827,0.018115,0.002417,-0.004127,-20.115381,-5.256414,-41.709808,-90.215454,-15.187865,-0.670833,Sitting
95,2021-02-15 13:50:26.319,0.123942,2.622696,9.599089,-0.003833,0.007299,-0.008852,-19.922989,-5.632732,-41.935028,-90.213379,-15.206714,-0.676615,Sitting
96,2021-02-15 13:50:26.369,0.117356,2.631827,9.645642,0.022722,0.005757,-0.011888,-20.079576,-5.494184,-41.940186,-90.220782,-15.2015,-0.676967,Sitting
97,2021-02-15 13:50:26.420,0.119601,2.641856,9.509425,-0.014477,-0.001088,-0.00882,-20.132988,-5.482269,-41.897278,-90.207102,-15.215003,-0.657766,Sitting
98,2021-02-15 13:50:26.470,0.122296,2.59201,9.648785,0.004838,0.012345,-0.014352,-19.981045,-5.514469,-41.947266,-90.190698,-15.214706,-0.690792,Sitting
99,2021-02-15 13:50:26.520,0.100441,2.617607,9.56451,-0.000611,-0.009659,-0.006471,-20.112431,-5.538506,-41.698273,-90.169903,-15.192159,-0.694735,Sitting
100,2021-02-15 13:50:26.570,0.1684,2.595752,9.601484,0.009987,0.020469,-0.017578,-20.005484,-5.412447,-41.894836,-90.170043,-15.206097,-0.721038,Sitting
101,2021-02-15 13:50:26.620,0.11077,2.611769,9.642798,0.014969,0.005731,-0.014227,-20.028624,-5.540112,-41.841858,-90.149457,-15.196831,-0.719899,Sitting
102,2021-02-15 13:50:26.671,0.066611,2.6209,9.541309,-0.001561,0.005433,0.010409,-20.15737,-5.287819,-41.777313,-90.138273,-15.215978,-0.703597,Sitting
103,2021-02-15 13:50:26.721,0.173938,2.587519,9.682316,0.014889,0.019504,-0.004714,-20.107403,-5.37561,-41.740875,-90.171585,-15.230247,-0.715579,Sitting
104,2021-02-15 13:50:26.771,0.128283,2.628833,9.534573,0.000254,-0.002294,-0.023831,-20.149296,-5.185053,-41.876099,-90.239911,-15.20905,-0.69043,Sitting
105,2021-02-15 13:50:26.821,0.071851,2.598447,9.572594,0.002121,0.012291,-0.012742,-20.154793,-5.435698,-41.848022,-90.213047,-15.233337,-0.681285,Sitting
106,2021-02-15 13:50:26.871,0.077988,2.685865,9.708661,0.035402,0.010813,-0.004853,-20.032921,-5.212524,-41.82312,-90.204422,-15.210369,-0.697479,Sitting
107,2021-02-15 13:50:26.922,0.146246,2.5727,9.532178,0.02421,0.000265,-0.014972,-20.196785,-5.248856,-41.670441,-90.23813,-15.255387,-0.698278,Sitting
108,2021-02-15 13:50:26.972,0.133822,2.608476,9.6175,0.009437,0.006513,-0.011032,-20.064217,-5.395401,-41.872192,-90.241486,-15.337657,-0.685496,Sitting
109,2021-02-15 13:50:27.022,0.08667,2.636318,9.604926,0.020152,-0.002685,-2e-05,-20.198523,-5.290623,-41.858765,-90.25301,-15.346434,-0.699271,Sitting
110,2021-02-15 13:50:27.072,0.150886,2.628833,9.486523,-0.029512,0.019668,0.003606,-20.079733,-5.593452,-41.937561,-90.281014,-15.390245,-0.711628,Sitting
111,2021-02-15 13:50:27.122,0.131277,2.682721,9.705817,0.02182,0.006903,-0.010015,-20.018169,-5.513277,-41.899139,-90.309545,-15.352184,-0.713533,Sitting
112,2021-02-15 13:50:27.173,0.12005,2.674039,9.557026,0.017321,-0.000213,-0.013058,-19.960783,-5.495119,-41.874298,-90.338491,-15.345994,-0.688179,Sitting
113,2021-02-15 13:50:27.223,0.107926,2.623445,9.633966,0.022204,0.001818,-0.0193,-19.974943,-5.436647,-41.805969,-90.340123,-15.402713,-0.707177,Sitting
114,2021-02-15 13:50:27.273,0.11077,2.66401,9.518257,0.017751,0.006788,-0.004948,-20.005716,-5.551575,-41.69043,-90.315547,-15.436398,-0.718744,Sitting
115,2021-02-15 13:50:27.323,0.152383,2.652634,9.599089,0.01873,0.010145,-0.005279,-20.099199,-5.60224,-41.751923,-90.319656,-15.509436,-0.734748,Sitting
116,2021-02-15 13:50:27.373,0.121248,2.686763,9.580378,0.015954,0.006024,-0.000169,-20.169006,-5.606546,-41.663635,-90.334614,-15.52984,-0.7162,Sitting
117,2021-02-15 13:50:27.424,0.177082,2.67853,9.565558,0.016346,0.015341,-0.015413,-20.181288,-5.387806,-41.832733,-90.378383,-15.568696,-0.724191,Sitting
118,2021-02-15 13:50:27.474,0.103136,2.705324,9.55523,-0.007956,-0.006316,-0.013793,-20.263523,-5.568979,-41.809479,-90.395157,-15.612005,-0.716204,Sitting
119,2021-02-15 13:50:27.524,0.085323,2.660118,9.619147,0.012771,0.007311,-0.016042,-19.966719,-5.565228,-41.798218,-90.381599,-15.603128,-0.714526,Sitting
120,2021-02-15 13:50:27.574,0.125888,2.650388,9.504485,-0.002827,-0.001556,-0.020173,-20.114351,-5.670935,-41.692108,-90.380044,-15.598355,-0.740228,Sitting
121,2021-02-15 13:50:27.625,0.117805,2.688858,9.64669,0.011302,0.024038,-0.007538,-20.011467,-5.473135,-41.935059,-90.355831,-15.627934,-0.738093,Sitting
122,2021-02-15 13:50:27.675,0.073797,2.729574,9.555679,0.024028,0.016845,-0.00306,-20.025366,-5.602968,-41.959106,-90.366341,-15.59664,-0.711671,Sitting
123,2021-02-15 13:50:27.725,0.161364,2.644551,9.58861,-0.006001,0.014116,-0.013642,-20.162897,-5.609798,-41.883331,-90.404278,-15.652634,-0.663302,Sitting
124,2021-02-15 13:50:27.775,0.076341,2.661316,9.606423,0.00462,0.003527,-0.014057,-20.006113,-5.718752,-41.710144,-90.417371,-15.646282,-0.651728,Sitting
125,2021-02-15 13:50:27.825,0.088017,2.710563,9.488469,-0.003113,0.009907,-0.005897,-19.995096,-5.627096,-41.801544,-90.384742,-15.646539,-0.645342,Sitting
126,2021-02-15 13:50:27.876,0.157323,2.716551,9.606423,-0.00623,0.00128,-0.016916,-20.083347,-5.526993,-41.909912,-90.412666,-15.647963,-0.664279,Sitting
127,2021-02-15 13:50:27.926,0.107477,2.657574,9.556876,0.008972,0.009689,-0.018221,-20.064043,-5.765081,-41.892792,-90.39997,-15.595812,-0.655254,Sitting
128,2021-02-15 13:50:27.976,0.088017,2.696642,9.515862,-0.020147,0.006328,-0.017422,-20.125267,-5.545633,-41.858276,-90.401218,-15.610773,-0.649436,Sitting
129,2021-02-15 13:50:28.026,0.135468,2.667902,9.615854,-0.009051,0.005312,-0.015921,-19.885956,-5.524517,-41.809296,-90.387775,-15.587003,-0.644331,Sitting
130,2021-02-15 13:50:28.076,0.087418,2.650987,9.616902,-0.004217,0.015855,-0.016277,-19.966898,-5.688517,-41.725739,-90.36551,-15.542714,-0.636946,Sitting
131,2021-02-15 13:50:28.127,0.140707,2.656526,9.567804,-0.003294,0.019202,-0.019171,-19.975626,-5.706144,-41.746307,-90.324909,-15.486951,-0.602656,Sitting
132,2021-02-15 13:50:28.177,0.082478,2.612817,9.600286,0.011392,0.003507,-0.018127,-20.102352,-5.663364,-41.877808,-90.306882,-15.516854,-0.589506,Sitting
133,2021-02-15 13:50:28.227,0.10598,2.700235,9.543704,0.000694,0.0169,-0.009936,-19.866148,-5.824354,-41.835876,-90.275739,-15.499617,-0.574002,Sitting
134,2021-02-15 13:50:28.277,0.123344,2.691104,9.608519,0.014171,0.011168,-0.020067,-19.947018,-5.757856,-41.806427,-90.253415,-15.496628,-0.562046,Sitting
135,2021-02-15 13:50:28.327,0.042512,2.646048,9.517957,-0.003479,0.003013,-0.024021,-19.815586,-5.650043,-41.864746,-90.261206,-15.513583,-0.555423,Sitting
136,2021-02-15 13:50:28.378,0.095202,2.603985,9.665999,0.003417,0.013923,-0.005056,-19.868357,-5.886187,-41.907013,-90.203125,-15.525824,-0.532523,Sitting
137,2021-02-15 13:50:28.428,0.060774,2.710713,9.510323,0.00334,0.024071,-0.012758,-19.844294,-5.673042,-41.968048,-90.209558,-15.507317,-0.546461,Sitting
138,2021-02-15 13:50:28.478,0.092957,2.64964,9.619147,0.020427,-0.003131,-0.006742,-19.842056,-5.691416,-41.86496,-90.190456,-15.521901,-0.503696,Sitting
139,2021-02-15 13:50:28.528,0.095202,2.650239,9.595197,-0.000907,0.007128,-0.009527,-19.776424,-5.643185,-41.851105,-90.187932,-15.524757,-0.518402,Sitting
140,2021-02-15 13:50:28.578,0.058828,2.642455,9.618249,0.020782,0.001457,-0.009848,-20.082363,-5.549683,-41.852234,-90.18842,-15.54984,-0.491509,Sitting
141,2021-02-15 13:50:28.629,0.143551,2.652933,9.551937,-0.000785,0.002544,-0.0175,-20.040012,-5.522543,-41.892334,-90.197541,-15.556845,-0.512995,Sitting
142,2021-02-15 13:50:28.679,0.07709,2.672692,9.688453,0.017327,0.001065,-0.010724,-19.880692,-5.720955,-41.874451,-90.22187,-15.562019,-0.524333,Sitting
143,2021-02-15 13:50:28.729,0.079784,2.685865,9.495953,0.004022,0.00717,-0.013552,-20.118835,-5.491503,-41.790833,-90.217963,-15.567254,-0.534653,Sitting
144,2021-02-15 13:50:28.779,0.044607,2.673291,9.630374,0.016421,0.001982,-0.001362,-20.077694,-5.732422,-41.867523,-90.210551,-15.585324,-0.543204,Sitting
145,2021-02-15 13:50:28.829,0.133073,2.662962,9.577533,0.012372,0.008086,-0.014379,-20.049738,-5.768602,-41.964447,-90.231859,-15.594196,-0.54762,Sitting
146,2021-02-15 13:50:28.880,0.118553,2.676285,9.557924,0.011227,0.002997,-0.009291,-19.995319,-5.693666,-42.115784,-90.228086,-15.611313,-0.548759,Sitting
147,2021-02-15 13:50:28.930,0.065414,2.726879,9.627679,0.0062,0.008765,-0.01096,-19.977337,-5.848553,-41.907318,-90.215721,-15.633052,-0.554289,Sitting
148,2021-02-15 13:50:28.980,0.069755,2.665806,9.549841,0.018966,-0.002137,-0.0115,-20.000343,-5.823217,-41.933563,-90.213089,-15.635994,-0.551486,Sitting
149,2021-02-15 13:50:29.030,0.067061,2.712509,9.563912,0.008344,0.009994,-0.006226,-19.943396,-5.797604,-41.760162,-90.191408,-15.676364,-0.563034,Sitting
150,2021-02-15 13:50:29.080,0.104034,2.706222,9.592951,0.013087,0.010508,-0.009267,-19.908482,-5.805983,-41.933685,-90.193547,-15.689369,-0.559043,Sitting
151,2021-02-15 13:50:29.131,0.134121,2.683769,9.503438,-0.001801,0.002786,-0.017303,-20.194893,-5.551388,-41.505219,-90.196836,-15.705879,-0.543095,Sitting
152,2021-02-15 13:50:29.181,0.093256,2.657873,9.664952,0.016715,0.003653,-0.012437,-20.002325,-5.839495,-41.672241,-90.192723,-15.720092,-0.544756,Sitting
153,2021-02-15 13:50:29.231,0.063169,2.761158,9.53113,0.010696,0.016884,-0.009935,-20.044933,-5.629166,-41.793854,-90.194552,-15.72228,-0.5454,Sitting
154,2021-02-15 13:50:29.281,0.093256,2.665956,9.574091,0.012828,0.003085,-0.008278,-19.933115,-5.810543,-41.905975,-90.202105,-15.743805,-0.528247,Sitting
155,2021-02-15 13:50:29.331,0.120799,2.671495,9.590556,-0.001205,0.012937,-0.009637,-19.890375,-6.055822,-41.744843,-90.192567,-15.768801,-0.52571,Sitting
156,2021-02-15 13:50:29.382,0.081431,2.704875,9.585317,0.009952,-0.002854,-0.016267,-19.967527,-5.55081,-41.649872,-90.21349,-15.768953,-0.51468,Sitting
157,2021-02-15 13:50:29.432,0.17319,2.743944,9.529932,0.000623,0.017398,-0.019556,-19.833925,-5.962179,-41.634735,-90.194093,-15.763322,-0.530065,Sitting
158,2021-02-15 13:50:29.482,0.061223,2.701133,9.480236,-0.023379,0.010395,-0.009759,-19.766668,-5.878569,-41.738007,-90.176589,-15.744027,-0.51919,Sitting
159,2021-02-15 13:50:29.532,-0.012873,2.821632,9.488319,-0.020509,0.034772,-0.004056,-19.865452,-5.753189,-41.857635,-90.173549,-15.728852,-0.509459,Sitting
160,2021-02-15 13:50:29.582,0.091011,2.669549,9.639355,-0.022303,0.0121,0.001851,-19.99477,-5.772419,-41.863647,-90.168988,-15.675318,-0.459741,Sitting
161,2021-02-15 13:50:29.633,0.09595,2.562072,9.607621,-0.018401,-0.004831,0.011167,-19.80018,-5.802591,-41.86731,-90.232762,-15.603716,-0.40923,Sitting
162,2021-02-15 13:50:29.683,0.265847,2.557581,9.635613,-0.014596,0.003271,-0.034203,-19.769629,-5.498005,-41.892029,-90.272025,-15.595781,-0.412888,Sitting
163,2021-02-15 13:50:29.733,0.040117,2.570155,9.661359,0.015626,0.009731,-0.027159,-19.817793,-5.584003,-41.784058,-90.308005,-15.537269,-0.454252,Sitting
164,2021-02-15 13:50:29.783,-0.018561,2.673141,9.571845,0.008575,-0.012782,-0.001302,-20.072346,-5.383907,-41.769135,-90.265086,-15.482623,-0.452536,Sitting
165,2021-02-15 13:50:29.834,0.103285,2.68332,9.629775,0.023428,-0.002621,-0.020689,-19.838284,-5.586164,-41.711304,-90.279777,-15.480265,-0.515287,Sitting
166,2021-02-15 13:50:29.884,0.002245,2.710414,9.561666,0.002565,-0.029242,-0.006305,-19.878448,-5.543041,-41.916687,-90.280878,-15.484576,-0.531369,Sitting
167,2021-02-15 13:50:29.934,0.125888,2.667004,9.639205,0.024987,0.004513,-0.004585,-19.919168,-5.654299,-41.682129,-90.26149,-15.516568,-0.569918,Sitting
168,2021-02-15 13:50:29.984,0.087269,2.678829,9.532477,0.008617,-0.012587,-0.001535,-19.984871,-5.592255,-41.912018,-90.291004,-15.541001,-0.615853,Sitting
169,2021-02-15 13:50:30.034,0.183967,2.623894,9.596095,0.023371,0.012675,-0.009396,-20.042645,-5.608194,-41.795807,-90.305307,-15.612641,-0.638479,Sitting
170,2021-02-15 13:50:30.085,0.116458,2.759661,9.581725,0.027769,0.003835,-0.005838,-19.919901,-5.735144,-41.827637,-90.314503,-15.634157,-0.650806,Sitting
171,2021-02-15 13:50:30.135,0.145497,2.684518,9.58876,0.021759,-0.002615,-0.023276,-20.046926,-5.6229,-41.888397,-90.329892,-15.703182,-0.64675,Sitting
172,2021-02-15 13:50:30.185,0.072898,2.689158,9.542955,0.004477,-0.014123,-0.025476,-19.992407,-5.858637,-41.709961,-90.31418,-15.745727,-0.682854,Sitting
173,2021-02-15 13:50:30.235,0.018711,2.740651,9.55972,0.027817,0.008425,0.005119,-19.8888,-5.875048,-41.383301,-90.240363,-15.76902,-0.718847,Sitting
174,2021-02-15 13:50:30.285,0.163909,2.772834,9.542806,0.016768,0.017275,-0.004276,-20.108843,-5.897099,-41.614441,-90.236576,-15.803877,-0.748482,Sitting
175,2021-02-15 13:50:30.336,0.13442,2.754123,9.516011,0.016402,0.019363,-0.007594,-20.070885,-5.821983,-41.91098,-90.27359,-15.832743,-0.721078,Sitting
176,2021-02-15 13:50:30.386,0.165855,2.732717,9.520203,-0.003267,0.005871,-0.012025,-19.964285,-5.818203,-41.413086,-90.268606,-15.898301,-0.668739,Sitting
177,2021-02-15 13:50:30.436,0.133073,2.739453,9.557924,-0.002117,0.002637,-0.021705,-20.048409,-5.920292,-41.778625,-90.284431,-15.913141,-0.691266,Sitting
178,2021-02-15 13:50:30.486,0.112267,2.712809,9.598041,0.00353,0.005828,-0.005901,-19.942802,-5.830299,-41.625671,-90.255107,-15.906752,-0.687671,Sitting
179,2021-02-15 13:50:30.536,0.096699,2.70742,9.601633,0.010628,0.02676,-0.008755,-20.080698,-6.015436,-41.813263,-90.23392,-15.891201,-0.701695,Sitting
180,2021-02-15 13:50:30.587,0.108973,2.705624,9.506431,-0.019983,0.007552,-0.016122,-19.99696,-5.96866,-41.9664,-90.210712,-15.907351,-0.667199,Sitting
181,2021-02-15 13:50:30.637,0.094603,2.701881,9.61286,0.008449,0.028853,-0.026932,-19.936201,-6.182877,-41.826324,-90.206913,-15.874519,-0.665357,Sitting
182,2021-02-15 13:50:30.687,-0.027243,2.773732,9.562115,-0.000763,0.000843,0.004189,-19.995724,-5.905266,-41.819519,-90.137965,-15.831716,-0.587266,Sitting
183,2021-02-15 13:50:30.737,0.176184,2.762056,9.607771,0.025371,0.010651,-0.013125,-19.843292,-5.980059,-41.786896,-90.164967,-15.847671,-0.585095,Sitting
184,2021-02-15 13:50:30.787,0.146096,2.680775,9.537716,-0.016334,-0.005904,-0.016905,-19.802982,-6.007103,-41.855072,-90.177913,-15.837807,-0.565124,Sitting
185,2021-02-15 13:50:30.838,0.110021,2.633923,9.596394,-0.000887,0.001162,-0.020447,-19.840767,-6.01684,-41.774902,-90.14363,-15.848414,-0.567252,Sitting
186,2021-02-15 13:50:30.888,0.03862,2.689158,9.724079,0.037281,0.020405,-0.009874,-19.951488,-6.044249,-41.861725,-90.104931,-15.825712,-0.596708,Sitting
187,2021-02-15 13:50:30.938,0.113913,2.802173,9.426348,-0.007459,0.011556,-0.011731,-19.915131,-6.157997,-41.868744,-90.084424,-15.822917,-0.546377,Sitting
188,2021-02-15 13:50:30.988,0.03862,2.710264,9.649234,0.008241,0.002135,-0.01092,-19.866385,-5.918524,-41.652649,-90.092556,-15.836391,-0.551481,Sitting
189,2021-02-15 13:50:31.038,0.030536,2.695594,9.526789,0.003822,-0.009034,0.008014,-19.797934,-6.011425,-41.85022,-90.081085,-15.814275,-0.531835,Sitting
190,2021-02-15 13:50:31.089,0.207169,2.682422,9.600885,0.000801,0.017272,-0.016888,-19.9904,-5.881102,-41.802704,-90.113547,-15.863109,-0.57495,Sitting
191,2021-02-15 13:50:31.139,0.100291,2.723137,9.503438,-0.004428,0.013939,-0.003471,-19.918638,-5.96073,-41.880737,-90.129105,-15.83492,-0.564117,Sitting
192,2021-02-15 13:50:31.189,0.068857,2.689457,9.637409,0.011798,0.009913,0.001608,-19.711441,-6.095169,-41.967651,-90.108732,-15.820704,-0.527628,Sitting
193,2021-02-15 13:50:31.239,0.104782,2.747087,9.683214,0.014441,0.001415,-0.039079,-20.019983,-5.956451,-41.947937,-90.160826,-15.799685,-0.548247,Sitting
194,2021-02-15 13:50:31.289,0.023801,2.765948,9.328751,-0.013675,-0.013094,-0.013998,-19.913256,-5.779341,-41.858337,-90.132068,-15.83185,-0.522533,Sitting
195,2021-02-15 13:50:31.340,0.131876,2.734514,9.664503,-0.001648,0.020805,-0.012219,-20.018486,-5.863211,-41.810608,-90.061089,-15.849744,-0.5726,Sitting
196,2021-02-15 13:50:31.390,0.011676,2.696044,9.562565,0.024131,0.020253,0.000162,-19.948366,-5.917948,-41.890411,-90.080227,-15.765421,-0.579882,Sitting
197,2021-02-15 13:50:31.440,0.129032,2.688409,9.452693,0.001931,0.024911,0.005135,-19.938185,-6.044607,-41.962128,-90.07036,-15.856608,-0.514107,Sitting
198,2021-02-15 13:50:31.490,0.107626,2.699337,9.716295,-0.001585,0.017443,-0.021456,-19.772177,-6.168936,-41.934387,-90.113867,-15.888927,-0.505629,Sitting
199,2021-02-15 13:50:31.540,0.056732,2.782863,9.436826,-0.002888,-0.008661,-0.02549,-19.707457,-5.973097,-41.66861,-90.102809,-15.817828,-0.43827,Sitting
200,2021-02-15 13:50:31.591,0.130229,2.749931,9.625883,0.003921,0.002202,-0.017399,-19.769695,-5.821966,-41.983398,-90.05684,-15.843384,-0.483128,Sitting
201,2021-02-15 13:50:31.641,0.076491,2.704725,9.558822,0.002868,0.002316,-0.019219,-19.910622,-5.686756,-41.960846,-90.057048,-15.800397,-0.490141,Sitting
202,2021-02-15 13:50:31.691,0.021855,2.691553,9.558523,-0.015868,-0.009913,-0.005012,-19.850513,-6.096331,-41.924194,-90.030815,-15.85043,-0.507195,Sitting
203,2021-02-15 13:50:31.741,0.120948,2.66401,9.650582,0.031827,0.022996,-0.006356,-19.906879,-5.966896,-41.864899,-90.01413,-15.81157,-0.54311,Sitting
204,2021-02-15 13:50:31.792,0.05284,2.749931,9.548793,0.014104,-0.022338,-0.002286,-19.719173,-5.938276,-41.677673,-90.021902,-15.829042,-0.520503,Sitting
205,2021-02-15 13:50:31.842,0.152982,2.711761,9.549242,0.00104,0.001443,-0.013803,-19.897602,-5.989962,-41.640869,-90.051951,-15.844513,-0.524073,Sitting
206,2021-02-15 13:50:31.892,0.106279,2.674488,9.545949,0.002708,-6e-05,-0.011348,-19.778116,-5.856262,-41.902527,-90.060171,-15.841501,-0.566237,Sitting
207,2021-02-15 13:50:31.942,0.060774,2.738106,9.595197,0.012923,-0.004331,-0.003105,-19.855927,-5.927389,-41.901733,-90.047336,-15.850382,-0.578537,Sitting
208,2021-02-15 13:50:31.992,0.145048,2.719245,9.586215,0.013675,-0.008011,-0.017674,-19.99618,-5.9277,-41.745667,-90.073248,-15.845991,-0.620312,Sitting
209,2021-02-15 13:50:32.043,0.082778,2.704875,9.537267,0.005102,-0.000353,-0.00715,-20.07815,-6.010427,-42.074615,-90.058148,-15.868032,-0.624315,Sitting
210,2021-02-15 13:50:32.093,0.093406,2.756817,9.640253,0.0106,-0.002707,-0.013233,-19.991865,-6.05945,-41.88446,-90.043472,-15.878536,-0.649092,Sitting
211,2021-02-15 13:50:32.143,0.089364,2.703678,9.559421,0.02992,-0.005555,-0.006933,-19.916056,-6.013618,-41.774536,-90.025848,-15.880296,-0.667498,Sitting
212,2021-02-15 13:50:32.193,0.115111,2.757117,9.567804,0.012095,0.014267,-0.006775,-19.915518,-6.061579,-41.771606,-90.025186,-15.946767,-0.6819,Sitting
213,2021-02-15 13:50:32.243,0.144749,2.743345,9.508826,0.02009,0.000688,-0.011646,-19.917271,-5.925547,-41.759979,-90.051283,-15.97079,-0.678588,Sitting
214,2021-02-15 13:50:32.294,0.103285,2.752027,9.641001,0.015384,0.004857,-0.003657,-19.971567,-6.114799,-41.697723,-90.061188,-16.027598,-0.681569,Sitting
215,2021-02-15 13:50:32.344,0.124391,2.76026,9.500593,0.015159,0.004982,-0.006091,-19.914234,-6.026642,-41.914612,-90.080832,-16.034442,-0.6734,Sitting
216,2021-02-15 13:50:32.394,0.133522,2.749782,9.57918,0.006677,0.000931,-0.016711,-19.944441,-6.235502,-41.740173,-90.094416,-16.085629,-0.706523,Sitting
217,2021-02-15 13:50:32.444,0.145348,2.764601,9.537567,0.017974,0.005282,-0.014127,-19.772261,-6.099514,-41.750549,-90.081221,-16.091152,-0.70396,Sitting
218,2021-02-15 13:50:32.494,0.121098,2.785258,9.528585,0.006643,0.005103,-0.006916,-20.00342,-6.177809,-41.732697,-90.074986,-16.116478,-0.729597,Sitting
219,2021-02-15 13:50:32.545,0.145198,2.746638,9.554781,0.004865,0.013296,-0.008305,-19.891504,-6.248552,-41.709686,-90.082963,-16.139514,-0.733772,Sitting
220,2021-02-15 13:50:32.595,0.089813,2.797233,9.557325,0.004063,0.012643,-0.005271,-19.979708,-6.192398,-41.946045,-90.08562,-16.137532,-0.739998,Sitting
221,2021-02-15 13:50:32.645,0.11062,2.809957,9.589059,0.024426,0.021268,-0.013451,-20.027697,-5.906357,-41.940063,-90.112984,-16.135731,-0.729288,Sitting
222,2021-02-15 13:50:32.695,0.104782,2.771337,9.508228,0.014034,-0.002729,-0.018039,-19.87134,-6.157255,-41.889862,-90.129045,-16.155984,-0.692472,Sitting
223,2021-02-15 13:50:32.745,0.094454,2.745291,9.469608,-0.002832,-0.002121,-0.009486,-19.90653,-6.191212,-41.737915,-90.110186,-16.227992,-0.691747,Sitting
224,2021-02-15 13:50:32.796,0.144749,2.820435,9.663604,0.027645,-0.004923,-0.0085,-20.1145,-6.122004,-41.788452,-90.108878,-16.232647,-0.706434,Sitting
225,2021-02-15 13:50:32.846,0.176483,2.76505,9.473799,-0.001444,0.005502,-0.022285,-20.086081,-6.345295,-41.707428,-90.11962,-16.224385,-0.725263,Sitting
226,2021-02-15 13:50:32.896,0.109572,2.784659,9.572145,0.00782,-0.004867,-0.017509,-19.915751,-6.264694,-41.866882,-90.099765,-16.27749,-0.740906,Sitting
227,2021-02-15 13:50:32.946,0.118703,2.819836,9.514514,0.016816,0.008902,-0.015123,-19.910358,-6.34865,-41.941345,-90.090235,-16.255952,-0.774813,Sitting
228,2021-02-15 13:50:32.996,0.100441,2.785408,9.561068,0.005964,0.005704,-0.000757,-20.078407,-6.326509,-41.795776,-90.08,-16.287208,-0.782938,Sitting
229,2021-02-15 13:50:33.047,0.128732,2.789749,9.594598,0.032753,0.010138,-0.008256,-19.909351,-6.255266,-41.380035,-90.09536,-16.281967,-0.768838,Sitting
230,2021-02-15 13:50:33.097,0.135917,2.826273,9.458681,0.004148,0.02123,-0.000601,-19.957073,-6.429102,-41.610199,-90.092263,-16.340939,-0.749183,Sitting
231,2021-02-15 13:50:33.147,0.131576,2.816543,9.671239,0.035378,0.009134,-0.011391,-19.948465,-6.44717,-41.653809,-90.10315,-16.360627,-0.730272,Sitting
232,2021-02-15 13:50:33.197,0.074545,2.75532,9.379795,-0.009535,0.000404,-0.004144,-20.053801,-6.33289,-41.43869,-90.122162,-16.40498,-0.698114,Sitting
233,2021-02-15 13:50:33.247,0.139809,2.819237,9.648336,0.008167,0.005337,-0.013449,-20.037785,-6.359737,-41.305756,-90.116852,-16.462574,-0.727944,Sitting
234,2021-02-15 13:50:33.298,0.075443,2.839595,9.557924,0.042721,-0.004064,-0.002282,-19.9949,-6.277203,-41.51712,-90.128656,-16.410981,-0.73715,Sitting
235,2021-02-15 13:50:33.348,0.185764,2.845732,9.505982,0.006264,0.011456,-0.010423,-19.917618,-6.348995,-41.370239,-90.117209,-16.497197,-0.742412,Sitting
236,2021-02-15 13:50:33.398,0.168699,2.824926,9.558373,0.031101,0.001549,-0.023915,-19.939846,-6.506575,-41.513092,-90.121007,-16.510845,-0.747565,Sitting
237,2021-02-15 13:50:33.448,0.102836,2.896926,9.470805,0.009976,0.008286,-0.01243,-20.020721,-6.53899,-41.49472,-90.095231,-16.577282,-0.729804,Sitting
238,2021-02-15 13:50:33.498,0.093106,2.899471,9.537567,-0.00115,7.4e-05,-0.008521,-19.951815,-6.723051,-41.663422,-90.069468,-16.602882,-0.738365,Sitting
239,2021-02-15 13:50:33.549,0.134121,2.753524,9.563762,0.023958,0.000452,-0.010012,-19.950785,-6.550781,-41.552887,-90.052018,-16.602465,-0.745753,Sitting
240,2021-02-15 13:50:33.599,0.130529,2.842888,9.543404,0.013305,-0.006078,-0.020782,-20.020205,-6.344044,-41.468628,-90.051578,-16.665999,-0.764987,Sitting
241,2021-02-15 13:50:33.649,0.176034,2.850822,9.475446,-0.000697,0.000391,-0.013626,-19.996609,-6.356815,-41.448761,-90.054288,-16.664364,-0.779131,Sitting
242,2021-02-15 13:50:33.699,0.135468,2.877616,9.541159,0.00332,-0.00813,-0.014942,-20.09672,-6.417456,-41.669769,-90.07279,-16.657933,-0.810346,Sitting
243,2021-02-15 13:50:33.749,0.123493,2.888394,9.493109,-0.001895,0.00129,-0.016761,-20.225605,-6.312651,-41.640625,-90.083456,-16.646602,-0.827489,Sitting
244,2021-02-15 13:50:33.800,0.1202,2.861599,9.519454,0.01415,0.000511,-0.015959,-20.12462,-6.471272,-41.557983,-90.101892,-16.638558,-0.871948,Sitting
245,2021-02-15 13:50:33.850,0.145797,2.85621,9.490265,-0.008799,0.013727,-0.0099,-20.248375,-6.424652,-41.679596,-90.068581,-16.656207,-0.857439,Sitting
246,2021-02-15 13:50:33.900,0.145947,2.864144,9.603729,0.039402,0.009661,-0.012389,-20.294483,-6.221516,-41.952667,-90.094784,-16.651363,-0.862352,Sitting
247,2021-02-15 13:50:33.950,0.113165,2.834955,9.426348,-0.017404,-0.009791,0.017418,-20.137909,-6.411371,-41.638062,-90.09914,-16.667273,-0.825489,Sitting
248,2021-02-15 13:50:34.001,0.311203,2.853666,9.59849,-0.002391,0.007377,-0.026536,-20.061945,-6.45635,-41.446655,-90.178109,-16.693184,-0.84272,Sitting
249,2021-02-15 13:50:34.051,0.064815,2.825225,9.484277,0.008566,-0.005241,-0.017894,-19.973993,-6.485458,-41.657806,-90.191484,-16.617795,-0.860594,Sitting
250,2021-02-15 13:50:34.101,0.162861,2.850373,9.592502,-0.004441,0.011405,-0.014136,-20.034067,-6.703297,-41.686615,-90.14502,-16.664619,-0.861583,Sitting
251,2021-02-15 13:50:34.151,0.117805,2.853666,9.494007,0.012493,0.00394,-0.019071,-20.041302,-6.414616,-41.683838,-90.169256,-16.611529,-0.916733,Sitting
252,2021-02-15 13:50:34.201,0.19235,2.834356,9.490415,-0.01059,0.031266,-0.026467,-20.152718,-6.378799,-41.660614,-90.139391,-16.654035,-0.86568,Sitting
253,2021-02-15 13:50:34.252,0.053289,2.956652,9.601184,0.038366,0.034095,-0.000403,-20.104988,-6.366442,-41.511658,-90.104615,-16.598377,-0.815186,Sitting
254,2021-02-15 13:50:34.302,0.138163,2.844235,9.51197,0.016239,-0.007026,-0.009289,-20.126207,-6.42448,-41.703186,-90.121013,-16.642602,-0.750881,Sitting
255,2021-02-15 13:50:34.352,0.138462,2.811454,9.522897,-0.00537,-0.006069,-0.01037,-19.984903,-6.523485,-41.724091,-90.163323,-16.705163,-0.758414,Sitting
256,2021-02-15 13:50:34.402,0.154928,2.840493,9.542806,0.00706,-0.004058,-0.01008,-20.170181,-6.4111,-41.84967,-90.181194,-16.72558,-0.76953,Sitting
257,2021-02-15 13:50:34.452,0.146845,2.878065,9.55987,0.030209,0.017699,-0.009608,-20.037066,-6.508644,-41.65155,-90.215654,-16.698075,-0.823875,Sitting
258,2021-02-15 13:50:34.503,0.122894,2.888244,9.49251,0.003265,-0.006236,0.003141,-20.067879,-6.291117,-41.600677,-90.227935,-16.728603,-0.79983,Sitting
259,2021-02-15 13:50:34.553,0.173489,2.893483,9.532028,0.012301,-0.003834,-0.023459,-20.119688,-6.293823,-41.354309,-90.284648,-16.73827,-0.837688,Sitting
260,2021-02-15 13:50:34.603,0.154179,2.842439,9.462572,-0.013087,-0.003666,-0.009497,-20.076933,-6.482574,-41.493073,-90.280884,-16.762359,-0.844639,Sitting
261,2021-02-15 13:50:34.653,0.12514,2.896028,9.576037,0.004755,0.002974,-0.012422,-20.123058,-6.237808,-41.572296,-90.298506,-16.726431,-0.884481,Sitting
262,2021-02-15 13:50:34.703,0.120499,2.870281,9.464219,0.011823,0.021086,-0.004161,-20.279583,-6.439028,-41.90451,-90.310496,-16.717777,-0.890097,Sitting
263,2021-02-15 13:50:34.754,0.152533,2.869982,9.614057,0.002755,-0.000445,-0.004838,-20.063328,-6.397707,-41.881531,-90.329483,-16.755114,-0.864037,Sitting
264,2021-02-15 13:50:34.804,0.184267,2.857408,9.457333,0.004949,-0.005174,-0.02115,-20.108097,-6.409861,-41.524841,-90.358588,-16.734163,-0.862425,Sitting
265,2021-02-15 13:50:34.854,0.126936,2.867437,9.686656,0.034264,-0.006302,-0.013599,-20.187716,-6.708256,-41.582977,-90.327155,-16.769043,-0.885949,Sitting
266,2021-02-15 13:50:34.904,0.15867,2.868784,9.436377,-0.003363,-0.007361,-0.014155,-20.1544,-6.664291,-41.542725,-90.296015,-16.770406,-0.916381,Sitting
267,2021-02-15 13:50:34.954,0.09595,2.839595,9.52604,0.002576,0.01353,-0.004597,-20.066519,-6.505592,-41.639282,-90.29943,-16.795838,-0.936492,Sitting
268,2021-02-15 13:50:35.005,0.171693,2.961442,9.510623,0.01244,0.007633,-0.015848,-20.193069,-6.447111,-41.632355,-90.306068,-16.768271,-0.935961,Sitting
269,2021-02-15 13:50:35.055,0.111219,2.900967,9.477841,-0.000813,-0.003668,-0.004777,-20.159025,-6.356003,-41.657318,-90.315582,-16.798815,-0.931001,Sitting
270,2021-02-15 13:50:35.105,0.186812,2.845882,9.58382,0.006909,0.008776,-0.011137,-20.164005,-6.559103,-41.419952,-90.318282,-16.787132,-0.917231,Sitting
271,2021-02-15 13:50:35.155,0.138612,2.835404,9.44431,-0.001712,-0.001437,-0.00288,-20.302343,-6.309956,-41.652893,-90.337463,-16.796505,-0.931476,Sitting
272,2021-02-15 13:50:35.205,0.209564,2.898423,9.585317,0.006602,0.01179,-0.017176,-20.229557,-6.62133,-41.416199,-90.346898,-16.807138,-0.951104,Sitting
273,2021-02-15 13:50:35.256,0.102088,2.882556,9.508527,0.009555,-0.006489,-0.010186,-20.213013,-6.499781,-41.7854,-90.352406,-16.77781,-0.961745,Sitting
274,2021-02-15 13:50:35.306,0.147593,2.890789,9.596843,0.009896,-0.005773,-0.012048,-20.260126,-6.498493,-41.644592,-90.351962,-16.796366,-0.961816,Sitting
275,2021-02-15 13:50:35.356,0.180674,2.865641,9.518556,0.006118,-0.005527,-0.021061,-20.22592,-6.52779,-41.501831,-90.363193,-16.797987,-1.019111,Sitting
276,2021-02-15 13:50:35.406,0.135618,2.868036,9.538614,0.010239,0.000664,-0.008839,-20.275543,-6.455896,-41.543365,-90.340999,-16.819517,-1.005168,Sitting
277,2021-02-15 13:50:35.456,0.176932,2.889441,9.491762,0.008047,-0.002659,-0.011033,-20.31053,-6.263288,-41.506653,-90.355715,-16.812214,-1.027985,Sitting
278,2021-02-15 13:50:35.507,0.236957,2.873125,9.55029,0.010613,0.005921,-0.012559,-20.328011,-6.569248,-41.531006,-90.360655,-16.843564,-1.037822,Sitting
279,2021-02-15 13:50:35.557,0.195044,2.877915,9.505234,0.005463,-0.006932,-0.017651,-20.373352,-6.536148,-41.650696,-90.343098,-16.848075,-1.040881,Sitting
280,2021-02-15 13:50:35.607,0.163011,2.879562,9.552086,0.018016,0.016497,-0.017731,-20.335068,-6.266724,-41.752014,-90.34913,-16.871863,-1.058037,Sitting
281,2021-02-15 13:50:35.657,0.13457,2.907105,9.524394,0.022313,-0.015374,0.002707,-20.299589,-6.290619,-41.651154,-90.361578,-16.872525,-1.05892,Sitting
282,2021-02-15 13:50:35.707,0.266895,2.861749,9.435778,-0.005528,-0.00903,-0.028028,-20.386688,-6.517679,-41.55957,-90.379323,-16.957882,-1.091466,Sitting
283,2021-02-15 13:50:35.758,0.13487,2.965034,9.556278,0.006572,-0.000112,-0.003105,-20.314711,-6.556725,-41.498657,-90.383561,-16.932063,-1.134603,Sitting
284,2021-02-15 13:50:35.808,0.251776,2.912493,9.525591,0.022852,0.011471,-0.014508,-20.396982,-6.467171,-41.602295,-90.367573,-16.925941,-1.134687,Sitting
285,2021-02-15 13:50:35.858,0.187111,2.9092,9.501492,0.007481,-0.009546,-0.016647,-20.20549,-6.795218,-41.758453,-90.4029,-16.960304,-1.157973,Sitting
286,2021-02-15 13:50:35.908,0.208816,2.866539,9.512119,-0.002876,-0.01019,-0.011416,-20.469,-6.655359,-41.454468,-90.393652,-16.97657,-1.16215,Sitting
287,2021-02-15 13:50:35.959,0.180375,2.875071,9.599837,0.01954,-0.002079,-0.021775,-20.330132,-6.748363,-41.590302,-90.395717,-16.979864,-1.219426,Sitting
288,2021-02-15 13:50:36.009,0.200583,2.921325,9.381741,-0.005739,0.006582,0.002155,-20.446611,-6.724455,-41.796631,-90.372121,-16.976987,-1.238172,Sitting
289,2021-02-15 13:50:36.059,0.223036,2.954257,9.610166,0.00781,0.000165,-0.009953,-20.43671,-6.714108,-41.71225,-90.387175,-16.980879,-1.26893,Sitting
290,2021-02-15 13:50:36.109,0.197589,2.913392,9.450448,0.004688,-0.014629,-0.020208,-20.547997,-6.432777,-41.546387,-90.414532,-16.955166,-1.275865,Sitting
291,2021-02-15 13:50:36.159,0.247136,2.925965,9.467512,-0.010484,-0.002683,-0.013802,-20.572857,-6.613983,-41.726501,-90.407807,-16.986039,-1.308522,Sitting
292,2021-02-15 13:50:36.210,0.205972,2.908751,9.556577,0.035772,0.007475,-0.019328,-20.561666,-6.489983,-41.741119,-90.437962,-16.953801,-1.391627,Sitting
293,2021-02-15 13:50:36.260,0.217049,2.919229,9.518257,0.004677,-0.003091,-0.009786,-20.584364,-6.669371,-41.742523,-90.429338,-17.005889,-1.368794,Sitting
294,2021-02-15 13:50:36.310,0.219743,2.911595,9.461974,-0.000808,0.002055,-0.003686,-20.574598,-6.734865,-41.60553,-90.421722,-17.011915,-1.38114,Sitting
295,2021-02-15 13:50:36.360,0.262404,2.901117,9.544303,0.004841,0.00323,-0.016296,-20.681204,-6.659859,-41.585327,-90.440901,-17.022985,-1.382949,Sitting
296,2021-02-15 13:50:36.410,0.262255,2.918182,9.479787,0.015345,0.006246,-0.018931,-20.768478,-6.442467,-41.58493,-90.475014,-17.008061,-1.399912,Sitting
297,2021-02-15 13:50:36.461,0.275876,2.924768,9.519155,-0.000825,0.009144,-0.014092,-20.654493,-6.617647,-41.387848,-90.459903,-17.035898,-1.397887,Sitting
298,2021-02-15 13:50:36.511,0.202828,2.912044,9.494606,0.014368,-0.00702,-0.021435,-20.585173,-6.754391,-41.147064,-90.455494,-17.008695,-1.415845,Sitting
299,2021-02-15 13:50:36.561,0.238005,2.876119,9.497749,0.00262,0.008959,-0.010568,-20.76145,-6.483608,-41.322693,-90.413658,-17.059891,-1.414361,Sitting
300,2021-02-15 13:50:36.611,0.213306,2.979404,9.518406,0.016262,0.012424,-0.007938,-20.704435,-6.513433,-41.442963,-90.421801,-17.036576,-1.442988,Sitting
301,2021-02-15 13:50:36.661,0.234263,2.942431,9.378896,-0.021488,-0.041681,-0.005679,-20.77445,-6.710981,-41.456055,-90.408333,-17.063231,-1.411455,Sitting
302,2021-02-15 13:50:36.712,0.288001,2.83705,9.705517,0.017333,0.01644,-0.024902,-20.668575,-6.670954,-41.336517,-90.418003,-17.041399,-1.493786,Sitting
303,2021-02-15 13:50:36.762,0.223036,2.897076,9.43473,0.003806,-0.015875,-0.007397,-20.754999,-6.566654,-41.385132,-90.393276,-16.998568,-1.496385,Sitting
304,2021-02-15 13:50:36.812,0.344733,2.917733,9.49281,-0.002792,0.012244,-0.022998,-20.61438,-6.636097,-41.299469,-90.393782,-17.05582,-1.531099,Sitting
305,2021-02-15 13:50:36.862,0.190853,2.941234,9.570348,0.009928,-0.010147,-0.013195,-20.621569,-6.716204,-41.463165,-90.366178,-17.010418,-1.542631,Sitting
306,2021-02-15 13:50:36.912,0.268392,2.928211,9.426497,-0.005702,0.000868,-0.017882,-20.58073,-6.80452,-41.406921,-90.343083,-17.01825,-1.527303,Sitting
307,2021-02-15 13:50:36.963,0.210313,2.922672,9.54565,0.00049,0.006473,-0.011368,-20.731047,-6.834759,-41.439148,-90.323347,-17.001255,-1.596061,Sitting
308,2021-02-15 13:50:37.013,0.217797,2.871329,9.490714,0.000382,-0.001305,-0.005049,-20.724726,-6.697428,-41.328064,-90.286546,-16.990863,-1.565468,Sitting
309,2021-02-15 13:50:37.063,0.339195,2.905608,9.556727,0.005797,0.012128,-0.019324,-20.813459,-6.732576,-41.437103,-90.296111,-16.999517,-1.579654,Sitting
310,2021-02-15 13:50:37.113,0.23097,2.916236,9.521101,0.003988,0.001915,-0.007503,-20.876143,-6.759457,-41.496796,-90.284001,-16.98613,-1.568526,Sitting
311,2021-02-15 13:50:37.163,0.270787,2.905757,9.513916,0.010254,0.006616,-0.009228,-20.718996,-6.664103,-41.138367,-90.27715,-16.98166,-1.562443,Sitting
312,2021-02-15 13:50:37.214,0.256716,2.912643,9.476344,0.007793,0.006061,-0.006444,-20.886728,-6.518991,-41.010345,-90.288775,-16.997191,-1.588284,Sitting
313,2021-02-15 13:50:37.264,0.18771,2.951113,9.560918,0.011337,0.014769,0.009174,-20.865299,-6.716818,-41.227844,-90.272494,-17.014443,-1.580356,Sitting
314,2021-02-15 13:50:37.314,0.249381,2.926115,9.535621,-0.004527,-0.045625,0.021474,-20.686188,-6.743052,-41.331268,-90.301554,-17.026787,-1.576359,Sitting
315,2021-02-15 13:50:37.364,0.246238,2.948269,9.567355,0.026653,0.004278,-0.011729,-20.735153,-6.70907,-41.469421,-90.365956,-17.0011,-1.684364,Sitting
316,2021-02-15 13:50:37.414,0.340093,2.9095,9.438473,0.002154,0.011065,-0.001751,-20.876585,-6.819798,-41.629425,-90.364528,-17.03398,-1.672589,Sitting
317,2021-02-15 13:50:37.465,0.312849,2.971471,9.505982,0.003728,-0.012637,-0.015135,-20.736284,-6.800688,-41.532806,-90.392311,-17.043984,-1.701004,Sitting
318,2021-02-15 13:50:37.515,0.29833,2.895579,9.538914,0.020977,0.005488,-0.02165,-20.790308,-6.733776,-41.430878,-90.402029,-17.044609,-1.722584,Sitting
319,2021-02-15 13:50:37.565,0.302371,2.909051,9.433982,-0.020406,0.001288,-0.003432,-20.916521,-6.680981,-41.367218,-90.369221,-17.070489,-1.744606,Sitting
320,2021-02-15 13:50:37.615,0.305814,2.909051,9.591005,0.024216,-0.000316,-0.016107,-20.886314,-6.754055,-41.355347,-90.382797,-17.076147,-1.760256,Sitting
321,2021-02-15 13:50:37.665,0.326621,2.920876,9.426348,-0.007146,0.000266,-0.015279,-20.935299,-6.67783,-41.37677,-90.374957,-17.071488,-1.770036,Sitting
322,2021-02-15 13:50:37.716,0.276475,2.920726,9.576336,0.015027,0.013172,-0.004116,-20.909403,-6.715496,-41.164948,-90.352494,-17.061832,-1.760855,Sitting
323,2021-02-15 13:50:37.766,0.286504,2.934947,9.453142,0.008055,0.006921,-0.015043,-20.86174,-6.729633,-41.270844,-90.375211,-17.055576,-1.764883,Sitting
324,2021-02-15 13:50:37.816,0.274978,2.89019,9.536968,0.001498,0.004885,-0.003814,-20.854244,-6.892494,-41.311493,-90.371989,-17.086494,-1.755751,Sitting
325,2021-02-15 13:50:37.866,0.298479,2.938839,9.53607,0.00255,0.003655,-0.01197,-20.840996,-6.806715,-41.498779,-90.379273,-17.080287,-1.741938,Sitting
326,2021-02-15 13:50:37.916,0.274679,2.901267,9.51197,0.024648,0.005925,-0.010194,-20.907663,-6.828724,-41.252136,-90.38618,-17.075397,-1.756588,Sitting
327,2021-02-15 13:50:37.967,0.28351,2.921325,9.45913,-0.003209,0.006499,-0.00342,-20.819866,-6.849884,-41.500824,-90.382346,-17.093198,-1.74714,Sitting
328,2021-02-15 13:50:38.017,0.311053,2.936743,9.563313,0.001646,-0.011567,-0.01586,-20.787979,-6.952848,-41.221069,-90.379051,-17.110654,-1.756442,Sitting
329,2021-02-15 13:50:38.067,0.304766,2.911595,9.498198,-0.008431,-0.033178,-0.014091,-20.875273,-6.586262,-41.234741,-90.365935,-17.093451,-1.783555,Sitting
330,2021-02-15 13:50:38.117,0.319136,2.906506,9.472003,-0.023165,-0.00832,-0.00919,-20.856907,-6.776882,-41.232086,-90.338434,-17.087939,-1.848123,Sitting
331,2021-02-15 13:50:38.168,0.287702,2.939138,9.525442,-0.024726,-0.060053,-0.010839,-20.924587,-6.725014,-41.092834,-90.347149,-17.015768,-1.911189,Sitting
332,2021-02-15 13:50:38.218,0.328267,2.865192,9.523795,-0.003527,-7.2e-05,0.000549,-21.148649,-6.610807,-41.325958,-90.3328,-16.948927,-2.011639,Sitting
333,2021-02-15 13:50:38.268,0.318388,2.961891,9.555679,0.016372,0.016045,-0.004481,-21.258612,-6.664965,-41.291168,-90.348333,-16.890975,-2.087798,Sitting
334,2021-02-15 13:50:38.318,0.323028,2.862497,9.491313,0.025014,0.009368,-0.008851,-21.18199,-6.752964,-41.381775,-90.369326,-16.902684,-2.075416,Sitting
335,2021-02-15 13:50:38.368,0.350272,2.884053,9.478439,-0.008364,-0.012294,-0.000864,-21.029238,-6.395004,-41.455475,-90.392542,-16.98882,-2.041364,Sitting
336,2021-02-15 13:50:38.419,0.465382,2.916834,9.53128,0.015522,0.000314,-0.013047,-21.081287,-6.332571,-41.234772,-90.439346,-16.949548,-2.093317,Sitting
337,2021-02-15 13:50:38.469,0.434247,2.914888,9.388626,-0.017961,-0.014599,-0.011141,-20.983873,-6.778469,-41.244263,-90.448203,-16.981997,-2.132312,Sitting
338,2021-02-15 13:50:38.519,0.450713,2.889591,9.577683,-0.023799,-0.005102,-0.025065,-21.10894,-6.606014,-41.293488,-90.460576,-16.959066,-2.169517,Sitting
339,2021-02-15 13:50:38.569,0.307012,2.877466,9.543853,0.007819,-0.009423,-0.020214,-21.266691,-6.650866,-41.28299,-90.443929,-16.884492,-2.241235,Sitting
340,2021-02-15 13:50:38.619,0.333656,2.852768,9.50718,-0.00661,-0.014149,-0.015016,-21.361149,-6.473188,-41.382965,-90.406367,-16.896811,-2.276012,Sitting
341,2021-02-15 13:50:38.670,0.367486,2.881059,9.587563,0.018996,-0.002624,-0.015003,-21.314585,-6.621893,-41.24585,-90.387442,-16.867218,-2.331073,Sitting
342,2021-02-15 13:50:38.720,0.419128,2.902015,9.474548,0.011396,0.004939,-0.013525,-21.396812,-6.669115,-41.125122,-90.363793,-16.86766,-2.34123,Sitting
343,2021-02-15 13:50:38.770,0.383802,2.893932,9.490864,0.018267,0.000414,-0.011388,-21.306702,-6.836716,-41.081451,-90.342304,-16.889295,-2.354815,Sitting
344,2021-02-15 13:50:38.820,0.445623,2.88031,9.466614,-0.000718,-0.011753,-0.025435,-21.353704,-6.805149,-41.266754,-90.322316,-16.942513,-2.341023,Sitting
345,2021-02-15 13:50:38.870,0.364193,2.931354,9.529184,0.017703,0.010424,-0.010967,-21.406696,-6.64319,-41.480042,-90.299447,-16.928567,-2.389333,Sitting
346,2021-02-15 13:50:38.921,0.437989,2.910398,9.508976,0.005515,-0.004015,-0.010426,-21.346823,-6.800777,-41.08075,-90.274135,-16.947243,-2.393516,Sitting
347,2021-02-15 13:50:38.971,0.407004,2.902913,9.492959,0.00619,-0.020915,-0.017695,-21.503672,-6.730553,-40.95047,-90.291391,-17.009724,-2.451232,Sitting
348,2021-02-15 13:50:39.021,0.386197,2.890639,9.480685,0.009562,-0.004789,-0.00675,-21.501673,-6.732046,-41.106628,-90.258943,-17.019098,-2.490496,Sitting
349,2021-02-15 13:50:39.071,0.419278,2.967729,9.560319,0.026956,-0.011349,-0.003042,-21.412514,-6.961626,-41.084961,-90.243402,-17.025641,-2.538796,Sitting
350,2021-02-15 13:50:39.121,0.410896,2.926414,9.41587,-0.006395,-0.020443,-0.00064,-21.429876,-6.745831,-41.314209,-90.260847,-17.061857,-2.593717,Sitting
351,2021-02-15 13:50:39.172,0.470771,2.89019,9.50688,-0.01727,-0.005408,-0.006761,-21.629047,-6.651472,-41.075439,-90.278946,-17.06515,-2.641927,Sitting
352,2021-02-15 13:50:39.222,0.462987,2.902464,9.625583,0.003923,-0.009569,-0.020314,-21.405659,-6.98085,-41.235352,-90.285901,-17.031207,-2.696785,Sitting
353,2021-02-15 13:50:39.272,0.479004,2.882705,9.389824,-0.008589,-0.000712,-0.021657,-21.578112,-6.815176,-40.978241,-90.252749,-16.990306,-2.725329,Sitting
354,2021-02-15 13:50:39.322,0.438438,2.925666,9.575438,0.006595,0.008775,-0.01344,-21.608599,-6.803493,-40.842804,-90.21152,-16.994856,-2.77217,Sitting
355,2021-02-15 13:50:39.372,0.441282,2.946173,9.487271,0.024603,0.00454,-0.014517,-21.614223,-6.924925,-40.842285,-90.161335,-16.961085,-2.770702,Sitting
356,2021-02-15 13:50:39.423,0.46643,2.917733,9.440568,-0.00691,-0.00852,-0.009885,-21.507629,-6.941023,-41.136169,-90.117985,-16.995601,-2.772772,Sitting
357,2021-02-15 13:50:39.473,0.481698,2.890938,9.574839,0.034714,0.007928,-0.019202,-21.488207,-7.21524,-41.059662,-90.105068,-17.000104,-2.807447,Sitting
358,2021-02-15 13:50:39.523,0.446971,2.943329,9.4494,-0.015678,-0.003457,0.004642,-21.7054,-7.014627,-40.840454,-90.043486,-17.041556,-2.788661,Sitting
359,2021-02-15 13:50:39.573,0.497715,2.938539,9.4494,0.005356,-0.018488,-0.013207,-21.677351,-6.980295,-40.986633,-90.056159,-17.042043,-2.817468,Sitting
360,2021-02-15 13:50:39.623,0.509989,2.916984,9.431886,0.000321,-0.021519,-0.007906,-21.673155,-6.828667,-40.947723,-90.051356,-17.028666,-2.874392,Sitting
361,2021-02-15 13:50:39.674,0.523012,2.913841,9.558972,0.011578,0.014614,-0.028992,-21.802917,-7.010406,-40.855682,-90.043482,-17.040124,-2.999664,Sitting
362,2021-02-15 13:50:39.724,0.462987,2.952909,9.452843,0.012655,-0.006618,-0.020323,-21.761858,-6.807774,-40.882355,-89.996145,-17.038705,-2.976257,Sitting
363,2021-02-15 13:50:39.774,0.520168,2.872227,9.542656,0.010589,0.014362,-0.016363,-21.803755,-6.80654,-40.822449,-89.962023,-17.069464,-2.992908,Sitting
364,2021-02-15 13:50:39.824,0.472867,2.91414,9.46841,0.00351,0.003077,-0.019727,-21.822849,-6.919685,-40.937317,-89.961444,-17.059586,-2.970763,Sitting
365,2021-02-15 13:50:39.874,0.477507,2.94782,9.512269,0.00157,0.017589,-0.009302,-21.604502,-7.089886,-40.964417,-89.935531,-17.097172,-2.968112,Sitting
366,2021-02-15 13:50:39.925,0.477058,2.932851,9.565259,0.037966,0.020831,-0.009991,-21.751068,-6.923918,-40.917877,-89.91108,-17.076769,-2.957587,Sitting
367,2021-02-15 13:50:39.975,0.537682,2.881658,9.396709,-0.018905,0.007262,-0.012084,-21.619825,-6.863186,-40.896881,-89.914537,-17.128887,-2.904983,Sitting
368,2021-02-15 13:50:40.025,0.513732,2.912194,9.573342,0.014099,-0.009181,-0.022825,-21.679579,-7.008381,-40.95816,-89.920287,-17.139651,-2.904349,Sitting
369,2021-02-15 13:50:40.075,0.484243,2.962789,9.42036,-0.00391,0.008167,-0.01501,-21.590843,-7.01483,-40.860229,-89.880518,-17.112946,-2.901706,Sitting
370,2021-02-15 13:50:40.126,0.47107,2.934947,9.524095,0.015002,0.009693,-0.014885,-21.656334,-7.053076,-40.748871,-89.84562,-17.087983,-2.93946,Sitting
371,2021-02-15 13:50:40.176,0.4329,2.935396,9.479038,-0.001005,0.005703,-0.010955,-21.583971,-7.188538,-41.094238,-89.833592,-17.114809,-2.920643,Sitting
372,2021-02-15 13:50:40.226,0.464334,2.951263,9.438323,-0.002168,0.003522,-0.015177,-21.744555,-6.866747,-40.776794,-89.83368,-17.122732,-2.917417,Sitting
373,2021-02-15 13:50:40.276,0.516725,2.935845,9.511221,0.005053,0.013833,-0.008331,-21.790771,-6.950737,-40.608276,-89.81115,-17.104214,-2.921485,Sitting
374,2021-02-15 13:50:40.326,0.496967,2.912793,9.519454,0.002424,0.020396,-0.014801,-21.617016,-7.009623,-40.57608,-89.792214,-17.103019,-2.888422,Sitting
375,2021-02-15 13:50:40.377,0.505798,2.906805,9.470057,0.006129,0.005996,-0.016663,-21.609804,-6.80961,-40.71402,-89.797593,-17.098995,-2.86127,Sitting
376,2021-02-15 13:50:40.427,0.463287,2.921624,9.496702,0.004278,0.014546,-0.012579,-21.690897,-6.921124,-40.648682,-89.793989,-17.120177,-2.852365,Sitting
377,2021-02-15 13:50:40.477,0.428858,2.934947,9.510173,0.007215,0.007596,-0.01311,-21.604189,-6.790466,-40.616302,-89.791362,-17.105982,-2.847127,Sitting
378,2021-02-15 13:50:40.527,0.483794,2.939288,9.498797,0.009585,0.006902,-0.009699,-21.664495,-6.779575,-40.620392,-89.788716,-17.101185,-2.84328,Sitting
379,2021-02-15 13:50:40.577,0.522264,2.912493,9.43982,0.001957,-0.010091,-0.022393,-21.697857,-6.650623,-40.686493,-89.794809,-17.110066,-2.836675,Sitting
380,2021-02-15 13:50:40.628,0.59636,2.89468,9.503138,-0.041605,-0.021716,-0.041946,-21.745739,-6.926382,-40.677582,-89.777103,-17.11222,-2.848344,Sitting
381,2021-02-15 13:50:40.678,0.503403,2.912643,9.588311,0.006356,-0.035153,-0.049714,-21.849472,-6.793375,-40.871674,-89.707687,-17.029861,-2.909605,Sitting
382,2021-02-15 13:50:40.728,0.39428,2.9574,9.42994,-0.005085,-0.00211,-0.019892,-21.825882,-6.841236,-40.752747,-89.601177,-17.003837,-2.986215,Sitting
383,2021-02-15 13:50:40.778,0.487836,2.92387,9.551637,0.029136,0.001325,-0.01006,-21.89756,-6.819159,-40.977844,-89.567824,-16.956095,-3.04464,Sitting
384,2021-02-15 13:50:40.828,0.481848,2.797682,9.460926,-0.001625,0.011964,0.000239,-21.869976,-6.883165,-40.825317,-89.554353,-17.004373,-3.03337,Sitting
385,2021-02-15 13:50:40.879,0.580193,2.911146,9.529034,0.016538,0.014136,-0.011446,-21.89669,-6.94998,-40.779755,-89.567383,-17.043201,-3.023812,Sitting
386,2021-02-15 13:50:40.929,0.57226,2.93824,9.466315,0.008008,0.004743,-0.009829,-21.733469,-7.044134,-40.868439,-89.585103,-17.051576,-2.979376,Sitting
387,2021-02-15 13:50:40.979,0.475711,2.928061,9.488918,0.003515,0.008011,-0.012226,-21.88925,-6.822851,-40.824554,-89.590535,-17.059663,-2.985979,Sitting
388,2021-02-15 13:50:41.029,0.501607,2.907105,9.544153,0.01583,0.011121,-0.013358,-21.860905,-6.789379,-41.104065,-89.60098,-17.053888,-2.992674,Sitting
389,2021-02-15 13:50:41.079,0.467029,2.899471,9.450597,0.003777,0.014084,-0.0082,-21.765699,-7.079502,-41.042267,-89.608481,-17.078358,-2.997417,Sitting
390,2021-02-15 13:50:41.130,0.492027,2.958897,9.507629,0.010567,0.015491,-0.007205,-21.798368,-7.170549,-41.07019,-89.619216,-17.093669,-2.970664,Sitting
391,2021-02-15 13:50:41.180,0.507594,2.915936,9.455537,-0.003706,0.004908,-0.008694,-21.852554,-7.113323,-40.944763,-89.620722,-17.096154,-2.966512,Sitting
392,2021-02-15 13:50:41.230,0.53873,2.922373,9.588161,0.014273,0.00425,-0.014481,-21.76878,-7.014301,-41.07074,-89.6311,-17.101534,-2.951069,Sitting
393,2021-02-15 13:50:41.280,0.477806,2.930606,9.437724,0.006629,0.004518,-0.007952,-21.665499,-6.990675,-41.264465,-89.631911,-17.089684,-2.959402,Sitting
394,2021-02-15 13:50:41.330,0.501158,2.910398,9.498498,0.002527,0.006716,-0.011701,-21.86515,-6.948961,-41.030121,-89.644245,-17.11958,-2.960285,Sitting
395,2021-02-15 13:50:41.381,0.478255,2.902464,9.487421,0.003637,0.009959,-0.002827,-21.691854,-7.025675,-41.049927,-89.665635,-17.104399,-2.96666,Sitting
396,2021-02-15 13:50:41.431,0.480201,3.002606,9.54056,0.01346,0.012932,-0.004909,-21.76692,-7.262072,-41.254242,-89.659126,-17.094755,-2.96698,Sitting
397,2021-02-15 13:50:41.481,0.482896,2.931654,9.438323,-0.001761,-0.022351,-0.013003,-21.764456,-7.154345,-41.185211,-89.69478,-17.115839,-2.948249,Sitting
398,2021-02-15 13:50:41.531,0.557291,2.889441,9.48757,-0.008304,0.005599,-0.021402,-21.919407,-7.107014,-40.927765,-89.68599,-17.110054,-2.990608,Sitting
399,2021-02-15 13:50:41.581,0.470023,2.916984,9.530232,0.005898,0.00521,-0.009418,-21.717236,-7.202066,-40.821075,-89.631125,-17.099006,-3.010568,Sitting
400,2021-02-15 13:50:41.632,0.526006,2.934348,9.475296,0.012239,0.012398,-0.011978,-21.825359,-7.219641,-40.835571,-89.603604,-17.083098,-3.018989,Sitting
401,2021-02-15 13:50:41.682,0.451611,2.9333,9.515413,-0.006993,-0.005723,-0.008184,-21.81456,-7.172667,-40.748749,-89.604306,-17.110189,-3.020509,Sitting
402,2021-02-15 13:50:41.732,0.522863,2.946323,9.450897,0.019704,-0.012457,-0.020247,-21.737339,-7.184389,-40.748444,-89.581206,-17.069436,-3.034345,Sitting
403,2021-02-15 13:50:41.782,0.504002,2.949616,9.46856,-0.00604,-0.004933,-0.022116,-21.689718,-7.347134,-40.780701,-89.531357,-17.12444,-3.084124,Sitting
404,2021-02-15 13:50:41.832,0.383203,2.982548,9.527238,0.03068,-0.000544,0.006537,-22.008791,-7.11894,-40.986755,-89.486171,-17.086134,-3.123973,Sitting
405,2021-02-15 13:50:41.883,0.53858,2.833757,9.518855,0.021704,0.006375,-0.006004,-21.993158,-7.162712,-40.710175,-89.504154,-17.167401,-3.140582,Sitting
406,2021-02-15 13:50:41.933,0.532293,2.932701,9.43967,0.008212,0.007259,-0.003219,-21.826168,-7.206692,-40.992523,-89.532947,-17.197924,-3.162839,Sitting
407,2021-02-15 13:50:41.983,0.560435,2.930456,9.533375,0.009872,0.012541,0.003463,-21.971622,-7.206053,-41.108368,-89.533345,-17.251761,-3.113335,Sitting
408,2021-02-15 13:50:42.033,0.583786,2.977009,9.524394,0.023133,0.02004,-0.017473,-21.872667,-7.344091,-41.17215,-89.577553,-17.218222,-3.123795,Sitting
409,2021-02-15 13:50:42.083,0.484991,3.002007,9.327853,0.000303,3.6e-05,-0.014944,-21.734844,-7.32082,-40.737518,-89.569076,-17.254511,-3.087214,Sitting
410,2021-02-15 13:50:42.134,0.495919,2.956352,9.646989,0.021197,-0.000754,-0.016355,-21.948812,-7.211254,-40.992157,-89.555112,-17.292054,-3.105627,Sitting
411,2021-02-15 13:50:42.184,0.448916,2.955604,9.381142,0.006273,0.006305,-0.007702,-21.905262,-7.023046,-40.85553,-89.563827,-17.274512,-3.119032,Sitting
412,2021-02-15 13:50:42.234,0.540975,2.954257,9.505982,-0.003169,0.004768,-0.005208,-21.775499,-7.334332,-40.869354,-89.553166,-17.334097,-3.12796,Sitting
413,2021-02-15 13:50:42.284,0.597108,2.915637,9.538016,0.031974,0.005464,-0.016324,-21.9065,-7.234961,-40.94339,-89.571035,-17.314835,-3.129759,Sitting
414,2021-02-15 13:50:42.335,0.563129,2.954107,9.361682,-0.010028,0.007327,-0.011163,-21.915293,-7.118832,-40.77417,-89.559269,-17.356047,-3.106734,Sitting
415,2021-02-15 13:50:42.385,0.527054,3.016228,9.539363,0.020296,0.012102,-0.014823,-21.931864,-7.224949,-40.753815,-89.55629,-17.346104,-3.135513,Sitting
416,2021-02-15 13:50:42.435,0.447869,2.952011,9.438473,-0.005477,-0.015555,-0.009462,-21.851849,-7.331398,-40.815918,-89.547679,-17.355579,-3.127392,Sitting
417,2021-02-15 13:50:42.485,0.5528,2.978207,9.502689,0.001018,0.000573,-0.024759,-21.896173,-7.327497,-40.900024,-89.531797,-17.367443,-3.164592,Sitting
418,2021-02-15 13:50:42.535,0.471819,2.948119,9.466464,0.001006,0.00252,-0.007726,-21.877666,-7.289991,-40.908386,-89.507932,-17.342985,-3.182199,Sitting
419,2021-02-15 13:50:42.586,0.559087,2.948718,9.483679,0.012657,0.012436,-0.006504,-21.838871,-7.270021,-40.913971,-89.495105,-17.343395,-3.159531,Sitting
420,2021-02-15 13:50:42.636,0.536185,2.966082,9.460327,0.011465,0.016206,-0.015877,-22.018055,-6.858974,-40.917572,-89.535663,-17.358178,-3.174529,Sitting
421,2021-02-15 13:50:42.686,0.513881,2.95261,9.44446,-0.008816,0.005965,-0.010787,-21.846478,-7.366856,-41.060455,-89.528392,-17.370373,-3.122211,Sitting
422,2021-02-15 13:50:42.736,0.540526,2.99093,9.50718,0.005344,0.011005,-0.022433,-21.869261,-7.377087,-41.188019,-89.524557,-17.356756,-3.130297,Sitting
423,2021-02-15 13:50:42.786,0.470921,2.95725,9.432635,0.006857,0.0159,0.001047,-21.822893,-7.427689,-41.072357,-89.509059,-17.352891,-3.111634,Sitting
424,2021-02-15 13:50:42.837,0.528551,3.029849,9.461525,-0.002511,0.01486,-0.011607,-21.79491,-7.290812,-40.963043,-89.515263,-17.35371,-3.107681,Sitting
425,2021-02-15 13:50:42.887,0.520318,2.935845,9.56975,0.014295,0.012879,-0.019796,-21.74659,-7.577103,-41.059235,-89.511022,-17.357949,-3.090302,Sitting
426,2021-02-15 13:50:42.937,0.433049,2.978057,9.366921,-0.011532,0.001389,-0.006058,-21.883524,-7.333126,-41.113037,-89.499133,-17.35534,-3.051887,Sitting
427,2021-02-15 13:50:42.987,0.581092,2.994373,9.560918,0.012664,0.006893,-0.016888,-21.932903,-7.380867,-40.878204,-89.505279,-17.357035,-3.06582,Sitting
428,2021-02-15 13:50:43.037,0.470771,2.920726,9.415121,-0.002058,0.009283,-0.010107,-21.784584,-7.371586,-40.958374,-89.507017,-17.325095,-3.074832,Sitting
429,2021-02-15 13:50:43.088,0.499811,2.98165,9.555978,0.010104,-0.000769,-0.008016,-21.956594,-7.201344,-41.080139,-89.484438,-17.343821,-3.040859,Sitting
430,2021-02-15 13:50:43.138,0.544418,2.974465,9.458531,-0.00014,0.006637,-0.015342,-21.913197,-7.169949,-41.080658,-89.526745,-17.320469,-3.068317,Sitting
431,2021-02-15 13:50:43.188,0.488734,2.982099,9.473949,-0.002105,0.00523,-0.010562,-22.006918,-7.234711,-41.108734,-89.526091,-17.329939,-3.040099,Sitting
432,2021-02-15 13:50:43.238,0.514929,2.960244,9.479487,0.010042,0.005114,-0.016978,-21.846338,-7.19101,-41.109528,-89.536756,-17.308388,-3.05614,Sitting
433,2021-02-15 13:50:43.288,0.478405,2.97192,9.472602,-0.007638,0.015101,-0.004912,-21.867779,-7.101908,-41.030701,-89.527418,-17.329549,-3.056558,Sitting
434,2021-02-15 13:50:43.339,0.504152,2.962939,9.514215,0.010019,5.4e-05,-0.012884,-21.822712,-7.192102,-40.951904,-89.554116,-17.31605,-3.0487,Sitting
435,2021-02-15 13:50:43.389,0.546663,2.952011,9.448951,0.002442,0.002446,-0.010542,-21.936687,-7.248877,-40.77301,-89.554797,-17.314588,-3.040001,Sitting
436,2021-02-15 13:50:43.439,0.513732,2.964585,9.541758,0.010215,0.007016,-0.019904,-21.960945,-7.021942,-41.099915,-89.584271,-17.321043,-3.047012,Sitting
437,2021-02-15 13:50:43.489,0.483644,2.960244,9.408235,-0.014567,0.006968,-0.007118,-21.918674,-7.30648,-41.000549,-89.558296,-17.309404,-3.026846,Sitting
438,2021-02-15 13:50:43.539,0.507894,2.958448,9.56017,0.014833,-0.000185,-0.020453,-21.882057,-7.263962,-40.826263,-89.557518,-17.301353,-3.047819,Sitting
439,2021-02-15 13:50:43.590,0.495769,2.93345,9.429042,-0.015247,0.014959,-0.011097,-21.786924,-7.405697,-40.802032,-89.518445,-17.287263,-3.041099,Sitting
440,2021-02-15 13:50:43.640,0.486488,3.00066,9.501641,0.015943,0.013589,-0.009363,-21.892851,-7.36385,-41.059326,-89.492667,-17.273402,-3.03205,Sitting
441,2021-02-15 13:50:43.690,0.502655,2.942132,9.523645,0.00752,-0.002254,-0.013793,-21.791143,-7.114239,-40.926483,-89.519248,-17.282555,-3.016906,Sitting
442,2021-02-15 13:50:43.740,0.505948,2.884502,9.425599,-0.000812,0.006881,-0.007729,-21.879303,-7.18965,-40.864502,-89.50389,-17.290366,-3.019184,Sitting
443,2021-02-15 13:50:43.790,0.486339,2.963388,9.56002,0.020173,0.007236,-0.008184,-21.784136,-7.3575,-40.818024,-89.508958,-17.299246,-3.033831,Sitting
444,2021-02-15 13:50:43.841,0.595312,2.964435,9.395662,-0.005502,0.000965,-0.018488,-21.785635,-7.462503,-40.969543,-89.50729,-17.296357,-3.042724,Sitting
445,2021-02-15 13:50:43.891,0.472118,2.958148,9.495205,0.004103,-0.004056,-0.012195,-21.886988,-7.17247,-40.802551,-89.478585,-17.295343,-3.050327,Sitting
446,2021-02-15 13:50:43.941,0.509091,2.995571,9.48308,0.002617,0.008305,-0.01565,-21.941687,-7.249506,-40.849365,-89.455986,-17.289275,-3.065443,Sitting
447,2021-02-15 13:50:43.991,0.487985,2.942281,9.456585,0.008329,0.009857,-0.007225,-21.959761,-7.28479,-41.027069,-89.44975,-17.274472,-3.100446,Sitting
448,2021-02-15 13:50:44.041,0.515678,2.953358,9.499695,0.005747,0.011521,-0.00332,-21.825268,-7.302818,-40.63501,-89.424937,-17.30169,-3.074021,Sitting
449,2021-02-15 13:50:44.092,0.524809,2.975213,9.506132,0.004263,-0.003018,-0.018956,-21.956451,-7.24991,-40.909698,-89.436707,-17.298455,-3.06911,Sitting
450,2021-02-15 13:50:44.142,0.508343,2.931953,9.448352,0.002892,0.011283,-0.008297,-21.847563,-7.147728,-40.702148,-89.426691,-17.305868,-3.059456,Sitting
451,2021-02-15 13:50:44.192,0.499362,2.974914,9.516161,0.002911,0.005215,-0.010576,-21.91901,-7.234066,-40.74707,-89.415142,-17.295474,-3.066868,Sitting
452,2021-02-15 13:50:44.242,0.529599,2.912793,9.460327,0.007813,0.001762,-0.017351,-21.876255,-6.925898,-40.739746,-89.446346,-17.298354,-3.070197,Sitting
453,2021-02-15 13:50:44.292,0.556393,2.947371,9.501492,0.001487,0.013942,-0.011243,-22.071922,-6.833315,-41.004913,-89.464355,-17.308627,-3.062914,Sitting
454,2021-02-15 13:50:44.343,0.458497,3.024461,9.457034,0.012169,0.014917,-0.002916,-22.02322,-6.978025,-40.842499,-89.484257,-17.284744,-3.066742,Sitting
455,2021-02-15 13:50:44.393,0.520019,2.954706,9.482331,0.006468,0.000301,-0.014083,-21.851593,-7.061268,-40.910736,-89.521246,-17.30321,-3.045203,Sitting
456,2021-02-15 13:50:44.443,0.527054,2.914439,9.494905,0.00884,0.002063,-0.010353,-21.793816,-7.293367,-40.887299,-89.53563,-17.30558,-3.050263,Sitting
457,2021-02-15 13:50:44.493,0.466729,2.946173,9.482331,0.001455,0.002627,-0.011941,-21.803415,-7.076544,-40.834656,-89.545504,-17.334331,-3.0471,Sitting
458,2021-02-15 13:50:44.544,0.565973,2.983596,9.44431,0.012323,0.011679,-0.014487,-21.695608,-7.118494,-41.009003,-89.565928,-17.319075,-3.069578,Sitting
459,2021-02-15 13:50:44.594,0.483345,2.966681,9.469458,-0.003383,-0.003052,-0.012242,-21.88265,-7.432869,-40.868134,-89.567602,-17.332186,-3.061133,Sitting
460,2021-02-15 13:50:44.644,0.511486,3.006348,9.488469,0.006779,0.011031,-0.013471,-21.81889,-7.401476,-40.856903,-89.545582,-17.322345,-3.077579,Sitting
461,2021-02-15 13:50:44.694,0.484542,2.956801,9.42066,0.004867,0.001179,-0.005567,-22.016043,-7.340347,-40.912018,-89.530047,-17.319305,-3.093751,Sitting
462,2021-02-15 13:50:44.744,0.51957,2.943778,9.52604,0.006867,0.012207,-0.008325,-21.821156,-7.294712,-40.836334,-89.523992,-17.339136,-3.096989,Sitting
463,2021-02-15 13:50:44.795,0.501906,2.977907,9.514065,0.016741,0.003073,-0.009466,-21.899353,-7.17771,-40.824677,-89.529139,-17.339243,-3.082222,Sitting
464,2021-02-15 13:50:44.845,0.53873,2.963837,9.448951,0.004324,0.010126,-0.011708,-21.741041,-7.362461,-40.90094,-89.522191,-17.358796,-3.073261,Sitting
465,2021-02-15 13:50:44.895,0.494572,2.963687,9.536818,0.007561,0.001629,-0.013344,-21.945753,-7.352785,-40.974457,-89.50489,-17.359193,-3.080144,Sitting
466,2021-02-15 13:50:44.945,0.522114,2.921175,9.473799,0.011116,-0.000578,-0.014989,-21.81406,-7.328762,-40.572937,-89.488967,-17.373511,-3.076285,Sitting
467,2021-02-15 13:50:44.995,0.521965,3.008743,9.423354,0.00177,0.014558,-0.00784,-21.890276,-7.274918,-40.640045,-89.481877,-17.369097,-3.105232,Sitting
468,2021-02-15 13:50:45.046,0.492925,3.030897,9.515712,0.020884,0.022187,-0.005806,-21.7318,-7.331852,-40.857391,-89.466989,-17.376882,-3.085388,Sitting
469,2021-02-15 13:50:45.096,0.49053,2.975961,9.472153,0.002951,-0.02191,-0.013187,-21.861795,-7.405481,-40.650757,-89.474107,-17.389198,-3.060053,Sitting
470,2021-02-15 13:50:45.146,0.559536,2.952311,9.490115,-0.000889,0.02005,-0.014414,-21.775785,-7.399118,-40.704834,-89.470205,-17.42274,-3.088782,Sitting
471,2021-02-15 13:50:45.196,0.486039,2.937491,9.519305,0.007287,-0.007491,-0.006329,-21.869534,-7.257341,-40.667938,-89.449401,-17.404499,-3.081175,Sitting
472,2021-02-15 13:50:45.246,0.549956,3.026407,9.413774,0.00266,0.014994,-0.016563,-21.774122,-7.380136,-40.774475,-89.466067,-17.42085,-3.102057,Sitting
473,2021-02-15 13:50:45.297,0.492775,3.00545,9.538165,0.002933,-4.2e-05,-0.007281,-21.890654,-7.379793,-40.811584,-89.443345,-17.420244,-3.093693,Sitting
474,2021-02-15 13:50:45.347,0.502804,2.991828,9.434132,-0.000398,0.003411,-0.019826,-21.926321,-7.274223,-40.73996,-89.442117,-17.396363,-3.103924,Sitting
475,2021-02-15 13:50:45.397,0.495919,2.989733,9.431587,0.00096,0.010601,-0.008343,-21.943605,-7.190222,-40.689178,-89.444981,-17.409938,-3.127518,Sitting
476,2021-02-15 13:50:45.447,0.526455,2.94797,9.560469,0.004745,0.00655,-0.014673,-21.834843,-7.23584,-40.793518,-89.436219,-17.403985,-3.118532,Sitting
477,2021-02-15 13:50:45.497,0.479154,2.979255,9.398805,-0.001185,0.012645,-0.009133,-22.005529,-7.10216,-40.647675,-89.458067,-17.399676,-3.108677,Sitting
478,2021-02-15 13:50:45.548,0.557141,2.999313,9.552984,0.002757,0.0001,-0.015356,-21.866062,-7.24218,-40.64447,-89.459806,-17.403984,-3.093994,Sitting
479,2021-02-15 13:50:45.598,0.494871,2.941533,9.422456,0.003728,0.016557,-0.010647,-21.858017,-7.038067,-40.808502,-89.487548,-17.390439,-3.099499,Sitting
480,2021-02-15 13:50:45.648,0.525108,3.002756,9.476494,-0.003755,-0.001275,-0.012314,-21.801086,-7.21966,-40.842651,-89.469357,-17.398123,-3.085772,Sitting
481,2021-02-15 13:50:45.698,0.557141,2.955304,9.52125,0.014165,0.016453,-0.019836,-21.937401,-7.254545,-40.773621,-89.467528,-17.378411,-3.116401,Sitting
482,2021-02-15 13:50:45.748,0.440085,2.99602,9.432635,0.009548,0.009709,-0.004885,-21.825308,-7.281527,-40.640045,-89.452434,-17.369788,-3.094859,Sitting
483,2021-02-15 13:50:45.799,0.568218,2.943778,9.524544,0.001597,0.002521,-0.020372,-21.93297,-7.094261,-40.899597,-89.472142,-17.399478,-3.082748,Sitting
484,2021-02-15 13:50:45.849,0.464634,2.947521,9.430539,0.005089,0.005502,-0.002011,-21.910345,-7.076767,-40.914703,-89.489896,-17.396566,-3.103167,Sitting
485,2021-02-15 13:50:45.899,0.552052,2.989433,9.537417,0.018381,0.005056,-0.009891,-22.013559,-7.157593,-40.839111,-89.491244,-17.422842,-3.090011,Sitting
486,2021-02-15 13:50:45.949,0.563728,2.942581,9.389824,-0.000945,-0.001528,-0.019487,-22.024601,-7.409863,-40.812073,-89.519355,-17.413363,-3.118866,Sitting
487,2021-02-15 13:50:45.999,0.492476,2.996169,9.52619,0.009484,0.002344,-0.008204,-21.822609,-7.242161,-40.724579,-89.50318,-17.440911,-3.099132,Sitting
488,2021-02-15 13:50:46.050,0.545765,3.013084,9.431138,0.007684,-0.002129,-0.023234,-21.868683,-7.288521,-40.999176,-89.500618,-17.427327,-3.137807,Sitting
489,2021-02-15 13:50:46.100,0.484542,2.973866,9.446406,-0.003605,-0.001672,-0.000347,-22.003336,-7.177311,-40.817535,-89.487915,-17.452233,-3.157447,Sitting
490,2021-02-15 13:50:46.150,0.565374,2.964585,9.525292,0.015125,0.005161,-0.018997,-21.941944,-7.267132,-40.70462,-89.486415,-17.440082,-3.16157,Sitting
491,2021-02-15 13:50:46.200,0.518671,3.005899,9.371711,-0.002086,0.005953,-0.011861,-22.035681,-7.206633,-40.797394,-89.506866,-17.457973,-3.191255,Sitting
492,2021-02-15 13:50:46.250,0.569266,2.984344,9.550739,0.008092,0.009495,-0.001732,-21.984255,-7.291306,-40.816345,-89.496531,-17.470904,-3.174242,Sitting
493,2021-02-15 13:50:46.301,0.531545,2.949766,9.389524,-0.001274,-0.00108,-0.028832,-21.972267,-7.261219,-40.801086,-89.531201,-17.443129,-3.19954,Sitting
494,2021-02-15 13:50:46.351,0.550106,2.972519,9.532776,0.004687,0.01237,-0.009291,-22.068432,-7.171619,-40.518921,-89.509897,-17.480861,-3.195388,Sitting
495,2021-02-15 13:50:46.401,0.511636,3.035538,9.413026,0.004621,0.016759,-0.005316,-21.94253,-7.2449,-40.694336,-89.508123,-17.433223,-3.20909,Sitting
496,2021-02-15 13:50:46.451,0.540526,2.979404,9.509724,0.003709,-0.002335,-0.014005,-22.035482,-7.246361,-40.701477,-89.540993,-17.46577,-3.187619,Sitting
497,2021-02-15 13:50:46.502,0.540376,2.943329,9.48757,0.013686,0.006682,-0.014102,-22.012703,-7.291428,-40.715912,-89.53457,-17.461312,-3.192558,Sitting
498,2021-02-15 13:50:46.552,0.506247,2.969675,9.44461,-0.008605,-0.001022,-0.006601,-21.887663,-7.283451,-40.876617,-89.527086,-17.49263,-3.18419,Sitting
499,2021-02-15 13:50:46.602,0.59621,3.009941,9.549242,0.026405,0.01853,-0.017904,-22.172316,-7.385052,-40.86377,-89.534019,-17.47107,-3.208291,Sitting
500,2021-02-15 13:50:46.652,0.497565,2.998714,9.404344,-0.007119,-0.005361,-0.003952,-22.13023,-7.161119,-40.407593,-89.525263,-17.480522,-3.183493,Sitting
501,2021-02-15 13:50:46.702,0.580343,3.01009,9.515263,0.022529,0.001174,-0.020691,-22.04355,-7.204428,-40.612091,-89.538305,-17.49579,-3.206873,Sitting
502,2021-02-15 13:50:46.753,0.489931,2.993774,9.45883,0.001544,-0.00601,-0.012133,-22.128632,-7.225527,-40.625336,-89.539708,-17.501457,-3.228037,Sitting
503,2021-02-15 13:50:46.803,0.545166,2.930905,9.514365,0.018726,0.00969,-0.004408,-22.139393,-7.083982,-40.534729,-89.528554,-17.513561,-3.246825,Sitting
504,2021-02-15 13:50:46.853,0.521216,3.014581,9.486223,0.011929,0.008325,-0.00565,-21.9508,-7.187632,-40.675415,-89.554154,-17.536171,-3.250413,Sitting
505,2021-02-15 13:50:46.903,0.590522,3.00545,9.427845,0.024162,0.006796,-0.010163,-22.073158,-7.323648,-40.860809,-89.582177,-17.547586,-3.244806,Sitting
506,2021-02-15 13:50:46.953,0.528251,3.026107,9.461974,-0.002648,-0.00084,-0.010164,-22.067148,-7.400547,-40.686005,-89.59808,-17.592087,-3.245876,Sitting
507,2021-02-15 13:50:47.004,0.56253,3.059637,9.436078,-0.000278,0.003545,-0.018482,-22.136192,-7.430754,-40.494873,-89.602026,-17.590424,-3.233543,Sitting
508,2021-02-15 13:50:47.054,0.486937,3.040028,9.450298,0.002708,0.011935,-5.2e-05,-22.048466,-7.266565,-40.404388,-89.572094,-17.588793,-3.27535,Sitting
509,2021-02-15 13:50:47.104,0.570164,3.031945,9.512868,0.008477,0.004252,-0.015849,-22.062542,-7.191999,-40.719147,-89.58364,-17.582943,-3.267297,Sitting
510,2021-02-15 13:50:47.154,0.525258,2.93809,9.387279,-0.006672,-0.003096,-0.013498,-22.126316,-7.095596,-40.41684,-89.607456,-17.600146,-3.260803,Sitting
511,2021-02-15 13:50:47.204,0.535886,3.008594,9.57918,0.006914,-0.001163,-0.008642,-22.260406,-6.966478,-40.365143,-89.599842,-17.607803,-3.270087,Sitting
512,2021-02-15 13:50:47.255,0.574356,2.999313,9.441167,0.017125,0.008462,-0.021455,-22.045801,-7.23539,-40.799103,-89.63278,-17.587854,-3.290998,Sitting
513,2021-02-15 13:50:47.305,0.516127,3.018772,9.45434,-0.004098,-2.6e-05,4e-05,-22.31748,-7.205681,-40.691254,-89.624374,-17.602038,-3.289684,Sitting
514,2021-02-15 13:50:47.355,0.568368,3.044968,9.514514,0.014838,0.01419,-0.022908,-22.078506,-7.415449,-40.80069,-89.636844,-17.589637,-3.289193,Sitting
515,2021-02-15 13:50:47.405,0.467178,3.007546,9.378447,-0.000101,0.009991,0.00515,-22.16205,-7.203352,-40.818451,-89.645199,-17.593279,-3.29904,Sitting
516,2021-02-15 13:50:47.455,0.607886,2.996918,9.470506,-0.011301,0.000961,-0.018523,-22.102098,-7.264044,-40.768402,-89.654577,-17.610113,-3.286531,Sitting
517,2021-02-15 13:50:47.506,0.473914,2.99123,9.477242,0.015124,0.002227,-0.010595,-22.308167,-6.993122,-40.656525,-89.678596,-17.584135,-3.295522,Sitting
518,2021-02-15 13:50:47.556,0.584984,3.036286,9.43503,0.004649,0.022957,-0.00084,-21.988525,-7.446194,-40.644867,-89.648776,-17.586319,-3.273473,Sitting
519,2021-02-15 13:50:47.606,0.56762,2.976111,9.5214,0.015224,0.001806,-0.017208,-22.166445,-7.214254,-40.689697,-89.693249,-17.580445,-3.295967,Sitting
520,2021-02-15 13:50:47.656,0.526006,3.01503,9.427545,0.000472,-0.001822,-0.015639,-22.133116,-7.216011,-40.754517,-89.69738,-17.609853,-3.254966,Sitting
521,2021-02-15 13:50:47.706,0.551902,3.045417,9.475296,0.005424,0.006449,-0.012046,-22.112305,-7.411077,-40.929749,-89.681465,-17.613386,-3.282119,Sitting
522,2021-02-15 13:50:47.757,0.523461,2.993774,9.493708,0.015089,0.005452,-0.008202,-22.121613,-7.270334,-40.786774,-89.682911,-17.593373,-3.300507,Sitting
523,2021-02-15 13:50:47.807,0.589025,2.990182,9.489666,0.005039,0.006955,-0.016596,-22.131006,-7.474943,-41.012146,-89.685549,-17.62601,-3.275334,Sitting
524,2021-02-15 13:50:47.857,0.507295,3.05844,9.423354,0.013323,0.021315,-0.006577,-22.02108,-7.488363,-40.836914,-89.672057,-17.622269,-3.276264,Sitting
525,2021-02-15 13:50:47.907,0.580942,3.003205,9.481583,0.006079,-0.001809,-0.010771,-21.95256,-7.469938,-40.754425,-89.661606,-17.648787,-3.245535,Sitting
526,2021-02-15 13:50:47.957,0.554746,2.981051,9.433084,-0.000231,0.001402,-0.01837,-22.125353,-7.262243,-40.683746,-89.69116,-17.649753,-3.280217,Sitting
527,2021-02-15 13:50:48.008,0.541873,3.00066,9.539363,0.0074,-0.002964,-0.009923,-22.019199,-7.496243,-40.581024,-89.661654,-17.668528,-3.260169,Sitting
528,2021-02-15 13:50:48.058,0.578098,3.003654,9.414672,0.0028,0.006728,-0.019578,-22.110495,-7.40473,-40.588745,-89.663915,-17.635999,-3.305746,Sitting
529,2021-02-15 13:50:48.108,0.540825,3.025508,9.468859,0.002074,-0.001945,-0.006854,-22.163527,-7.271004,-40.574127,-89.625385,-17.630887,-3.296792,Sitting
530,2021-02-15 13:50:48.158,0.551603,3.021766,9.617201,0.030655,-0.018626,-0.018282,-22.138689,-7.458622,-40.706848,-89.631071,-17.625013,-3.311593,Sitting
531,2021-02-15 13:50:48.208,0.520767,2.996618,9.400901,-0.001531,-0.007106,-0.007746,-22.216806,-7.393831,-40.795166,-89.639915,-17.65064,-3.372259,Sitting
532,2021-02-15 13:50:48.259,0.585882,3.008893,9.581425,0.015965,0.006556,-0.016768,-21.961712,-7.673313,-40.624298,-89.614651,-17.660298,-3.376542,Sitting
533,2021-02-15 13:50:48.309,0.535886,3.0056,9.365574,-0.003251,-0.002689,-0.014042,-22.113886,-7.422405,-40.779053,-89.609094,-17.648708,-3.392799,Sitting
534,2021-02-15 13:50:48.359,0.603246,3.030298,9.504336,0.017267,0.01707,-0.003747,-22.031168,-7.605398,-40.757935,-89.589001,-17.670404,-3.393306,Sitting
535,2021-02-15 13:50:48.409,0.541274,3.00066,9.441466,-0.000409,0.001216,-0.007089,-22.204836,-7.380735,-40.649841,-89.602045,-17.659736,-3.401217,Sitting
536,2021-02-15 13:50:48.459,0.604293,3.027903,9.494905,0.024403,0.014992,-0.017109,-22.220312,-7.588596,-40.526642,-89.603579,-17.681447,-3.390866,Sitting
537,2021-02-15 13:50:48.510,0.536933,3.030748,9.389524,-0.011616,-0.001627,-0.004594,-22.161673,-7.422945,-40.738464,-89.600075,-17.685858,-3.377771,Sitting
538,2021-02-15 13:50:48.560,0.577349,3.020419,9.511221,0.004151,0.001295,-0.020232,-21.986336,-7.414686,-40.817963,-89.608098,-17.686101,-3.391612,Sitting
539,2021-02-15 13:50:48.610,0.556543,2.994822,9.451645,0.000645,0.008226,-0.010416,-21.985821,-7.473864,-40.813446,-89.608417,-17.674853,-3.397666,Sitting
540,2021-02-15 13:50:48.660,0.580792,3.060087,9.483828,0.013525,0.016514,-0.01083,-22.130808,-7.585413,-40.719025,-89.595748,-17.663377,-3.401983,Sitting
541,2021-02-15 13:50:48.711,0.570464,3.0056,9.428144,-0.003476,-0.009448,-0.016984,-22.067429,-7.360582,-40.605347,-89.605774,-17.685404,-3.380394,Sitting
542,2021-02-15 13:50:48.761,0.596659,2.980302,9.542656,0.005964,0.004246,-0.013885,-22.119867,-7.609005,-40.857422,-89.609532,-17.683369,-3.398533,Sitting
543,2021-02-15 13:50:48.811,0.566272,3.013683,9.446556,0.007231,0.007203,-0.009726,-22.019302,-7.459469,-40.616364,-89.592341,-17.673662,-3.404825,Sitting
544,2021-02-15 13:50:48.861,0.627046,3.020868,9.422755,0.00052,0.01022,-0.019814,-22.249928,-7.412766,-40.861267,-89.600933,-17.673848,-3.432412,Sitting
545,2021-02-15 13:50:48.911,0.566871,3.037034,9.504036,0.004048,-0.009048,-0.009469,-22.19932,-7.383656,-40.832123,-89.604466,-17.664248,-3.419473,Sitting
546,2021-02-15 13:50:48.962,0.541873,3.02476,9.400452,0.000224,0.002184,-0.015911,-22.101622,-7.428354,-40.844055,-89.606027,-17.660584,-3.443898,Sitting
547,2021-02-15 13:50:49.012,0.562381,3.057542,9.512718,0.006816,0.004027,-0.006948,-22.167864,-7.398067,-40.592743,-89.594002,-17.651276,-3.470979,Sitting
548,2021-02-15 13:50:49.062,0.595013,2.981799,9.426048,0.003242,0.004718,-0.012634,-22.190285,-7.471731,-40.826691,-89.596078,-17.645453,-3.473082,Sitting
549,2021-02-15 13:50:49.112,0.594414,3.031945,9.504785,0.005377,0.002384,-0.017385,-22.121677,-7.228012,-40.620941,-89.610502,-17.658,-3.465759,Sitting
550,2021-02-15 13:50:49.162,0.568967,3.023862,9.409134,-0.001867,0.008987,-0.008304,-22.210148,-7.377563,-40.741425,-89.610976,-17.645355,-3.465903,Sitting
551,2021-02-15 13:50:49.213,0.580044,2.997517,9.511221,0.015247,0.014241,-0.015128,-22.342407,-7.409487,-40.558777,-89.61236,-17.638881,-3.474238,Sitting
552,2021-02-15 13:50:49.263,0.57211,3.032394,9.421408,-0.006599,0.002194,-0.009972,-22.145395,-7.474365,-40.740448,-89.610934,-17.646019,-3.462661,Sitting
553,2021-02-15 13:50:49.313,0.588127,3.005899,9.533076,0.015703,-0.004463,-0.016989,-22.112841,-7.409616,-40.685608,-89.601302,-17.650242,-3.463654,Sitting
554,2021-02-15 13:50:49.363,0.59127,3.004702,9.373208,-0.004834,0.010745,-0.004954,-22.232866,-7.499174,-40.62851,-89.570133,-17.649582,-3.46718,Sitting
555,2021-02-15 13:50:49.413,0.593067,3.034639,9.553134,0.020356,0.001924,-0.017365,-22.235861,-7.389305,-40.786377,-89.59122,-17.65,-3.482824,Sitting
556,2021-02-15 13:50:49.464,0.596659,2.969824,9.375903,0.000596,0.006371,-0.00712,-22.109995,-7.367455,-40.518188,-89.59026,-17.659951,-3.478111,Sitting
557,2021-02-15 13:50:49.514,0.556992,3.085384,9.569001,0.023946,0.011528,-0.013955,-22.212708,-7.454781,-40.967041,-89.602918,-17.674983,-3.478723,Sitting
558,2021-02-15 13:50:49.564,0.550705,2.975363,9.447753,0.001424,-0.009162,-0.011836,-22.184803,-7.22267,-40.631409,-89.618427,-17.679836,-3.457062,Sitting
559,2021-02-15 13:50:49.614,0.602347,2.985092,9.457333,0.005797,0.012746,-0.007845,-22.27191,-7.419302,-40.450562,-89.611504,-17.696373,-3.482922,Sitting
560,2021-02-15 13:50:49.664,0.552351,3.053351,9.466464,0.009852,-0.000609,-0.006768,-22.262161,-7.29191,-40.605286,-89.610905,-17.700955,-3.484926,Sitting
561,2021-02-15 13:50:49.715,0.603246,3.022365,9.44446,0.005988,0.001056,-0.011792,-22.126564,-7.49004,-40.60202,-89.61032,-17.701939,-3.493695,Sitting
562,2021-02-15 13:50:49.765,0.579295,3.058739,9.458381,0.011219,-0.003387,-0.013016,-22.277784,-7.533623,-40.744415,-89.595719,-17.712615,-3.497848,Sitting
563,2021-02-15 13:50:49.815,0.629441,3.056793,9.448352,0.001684,-0.00252,-0.025875,-22.15856,-7.542759,-40.768982,-89.58162,-17.726474,-3.523251,Sitting
564,2021-02-15 13:50:49.865,0.550405,2.994523,9.410032,0.007252,-0.001152,-0.00763,-22.229973,-7.471184,-40.631836,-89.552874,-17.715649,-3.541303,Sitting
565,2021-02-15 13:50:49.915,0.608485,3.026407,9.447005,-0.004725,-0.000651,-0.012891,-22.263655,-7.734388,-40.516754,-89.5262,-17.73136,-3.579297,Sitting
566,2021-02-15 13:50:49.966,0.623903,3.015928,9.527388,0.028514,0.000798,-0.019268,-22.053635,-7.860767,-40.571838,-89.52016,-17.74688,-3.594484,Sitting
567,2021-02-15 13:50:50.016,0.604293,3.025209,9.378298,0.000402,0.011008,0.00181,-22.170286,-7.718416,-40.560577,-89.486164,-17.753669,-3.596621,Sitting
568,2021-02-15 13:50:50.066,0.681533,3.093317,9.4253,0.029226,0.035054,-0.006992,-22.290815,-7.458912,-40.658234,-89.49937,-17.769473,-3.612172,Sitting
569,2021-02-15 13:50:50.116,0.633333,3.038831,9.423055,-0.014662,-0.001375,-0.030655,-22.29587,-7.72011,-40.40799,-89.530132,-17.853799,-3.608682,Sitting
570,2021-02-15 13:50:50.166,0.524809,2.996768,9.337582,-0.001268,-0.020889,-0.00877,-22.231955,-7.640848,-40.601837,-89.500992,-17.860969,-3.602888,Sitting
571,2021-02-15 13:50:50.217,0.630489,3.11143,9.532477,0.005341,0.009076,-0.011745,-22.354748,-7.627546,-40.6138,-89.449002,-17.881665,-3.658917,Sitting
572,2021-02-15 13:50:50.267,0.66372,3.043471,9.413175,0.02267,0.00902,-0.014439,-22.449568,-7.496063,-40.703491,-89.470876,-17.820362,-3.679488,Sitting
573,2021-02-15 13:50:50.317,0.603395,3.084486,9.359587,-0.0041,-0.000968,-0.006429,-22.361872,-7.60836,-40.651459,-89.470789,-17.873611,-3.661752,Sitting
574,2021-02-15 13:50:50.367,0.663121,3.106939,9.547147,-0.007634,0.004331,-0.020381,-22.497007,-7.590086,-40.853668,-89.466441,-17.887521,-3.667702,Sitting
575,2021-02-15 13:50:50.417,0.583786,3.01503,9.315728,-0.00028,-0.009917,-0.01798,-22.213024,-7.855904,-40.556519,-89.448354,-17.835154,-3.673441,Sitting
576,2021-02-15 13:50:50.468,0.625549,3.040627,9.450597,-0.008168,0.002792,-0.01106,-22.325422,-7.765011,-40.635986,-89.413473,-17.892848,-3.720443,Sitting
577,2021-02-15 13:50:50.518,0.638273,3.064727,9.477841,0.014307,0.008291,-0.016313,-22.329153,-7.756514,-40.66095,-89.421668,-17.842133,-3.742606,Sitting
578,2021-02-15 13:50:50.568,0.614323,3.052003,9.414223,-0.011266,0.002309,-0.009885,-22.369762,-7.497091,-40.495178,-89.434441,-17.841685,-3.729987,Sitting
579,2021-02-15 13:50:50.618,0.642464,3.06338,9.490864,0.007064,0.004256,-0.016483,-22.433191,-7.690159,-40.599884,-89.426807,-17.821873,-3.736556,Sitting
580,2021-02-15 13:50:50.669,0.604892,3.025808,9.441317,0.00319,0.0083,-0.016547,-22.414915,-7.63769,-40.317047,-89.434353,-17.813483,-3.754272,Sitting
581,2021-02-15 13:50:50.719,0.62525,3.042124,9.466764,0.002285,0.013317,-0.003086,-22.498194,-7.541922,-40.503815,-89.43925,-17.811186,-3.740558,Sitting
582,2021-02-15 13:50:50.769,0.617316,3.041375,9.451795,0.004458,0.003942,-0.014924,-22.387291,-7.578342,-40.577545,-89.461003,-17.79716,-3.739571,Sitting
583,2021-02-15 13:50:50.819,0.621208,3.031795,9.468859,-0.005092,0.005562,-0.013196,-22.39012,-7.46706,-40.617889,-89.478374,-17.801366,-3.715407,Sitting
584,2021-02-15 13:50:50.869,0.607587,3.040178,9.505383,0.010228,0.00955,-0.01263,-22.319916,-7.782993,-40.880402,-89.477095,-17.774517,-3.730276,Sitting
585,2021-02-15 13:50:50.920,0.59621,3.025209,9.421857,-0.006857,0.009931,-0.004872,-22.243456,-7.427212,-40.735474,-89.476308,-17.768291,-3.724607,Sitting
586,2021-02-15 13:50:50.970,0.659978,3.046615,9.473949,0.015932,0.006279,-0.015295,-22.276634,-7.445303,-40.654999,-89.495261,-17.758426,-3.716827,Sitting
587,2021-02-15 13:50:51.020,0.594414,3.035089,9.394015,-0.014814,-0.000301,-0.012385,-22.329359,-7.634127,-40.737244,-89.500836,-17.76457,-3.708663,Sitting
588,2021-02-15 13:50:51.070,0.606389,3.03449,9.455088,0.004028,0.007166,-0.011973,-22.207869,-7.381342,-40.736481,-89.520507,-17.744113,-3.711193,Sitting
589,2021-02-15 13:50:51.120,0.586031,3.067721,9.438173,-0.001296,0.012953,-0.010563,-22.357977,-7.379745,-40.757294,-89.523343,-17.724611,-3.731523,Sitting
590,2021-02-15 13:50:51.171,0.59636,3.04856,9.489516,0.019081,0.010064,-0.008211,-22.46417,-7.477457,-40.589539,-89.529032,-17.714527,-3.723973,Sitting
591,2021-02-15 13:50:51.221,0.607437,2.985691,9.417067,-0.010125,0.002113,-0.006124,-22.41408,-7.470341,-40.730865,-89.558613,-17.730856,-3.698791,Sitting
592,2021-02-15 13:50:51.271,0.637225,2.985242,9.510473,-0.004424,0.004976,-0.009868,-22.30632,-7.627213,-40.699127,-89.567975,-17.721257,-3.710567,Sitting
593,2021-02-15 13:50:51.321,0.662822,3.074008,9.340426,-0.008871,0.002813,-0.011066,-22.276672,-7.451694,-40.474823,-89.57563,-17.696777,-3.704107,Sitting
594,2021-02-15 13:50:51.371,0.653691,3.027903,9.474099,0.000518,-0.004832,-0.014086,-22.351967,-7.412403,-40.365753,-89.591512,-17.669238,-3.750445,Sitting
595,2021-02-15 13:50:51.422,0.60609,3.017276,9.461225,0.000696,0.007238,-0.016967,-22.416595,-7.437803,-40.595856,-89.575285,-17.64787,-3.775887,Sitting
596,2021-02-15 13:50:51.472,0.606838,3.015779,9.450597,-0.00373,0.000869,-0.015679,-22.349979,-7.582935,-40.493134,-89.553605,-17.652948,-3.767494,Sitting
597,2021-02-15 13:50:51.522,0.589774,2.989134,9.423653,-0.002851,0.009711,-0.002589,-22.398378,-7.492634,-40.354889,-89.529772,-17.64221,-3.781201,Sitting
598,2021-02-15 13:50:51.572,0.664468,3.042573,9.537417,0.013956,0.012121,-0.008429,-22.305161,-7.523046,-40.576111,-89.52519,-17.627855,-3.773738,Sitting
599,2021-02-15 13:50:51.622,0.625549,3.000061,9.388926,-0.007362,0.012684,-0.00512,-22.292683,-7.619669,-40.736511,-89.525183,-17.610584,-3.756183,Sitting
600,2021-02-15 13:50:51.673,0.615819,2.987487,9.510623,0.006332,0.008564,-0.010243,-22.27387,-7.453547,-40.59787,-89.542484,-17.605372,-3.745943,Sitting
601,2021-02-15 13:50:51.723,0.622106,3.002007,9.48772,-0.00126,0.000837,-0.011885,-22.257643,-7.539782,-40.612457,-89.540549,-17.600229,-3.743154,Sitting
602,2021-02-15 13:50:51.773,0.608784,2.979554,9.455986,0.006566,0.008048,-0.013562,-22.38266,-7.609278,-40.486603,-89.515926,-17.593089,-3.749903,Sitting
603,2021-02-15 13:50:51.823,0.632135,3.0056,9.474248,-0.00344,0.003223,-0.019947,-22.274704,-7.59621,-40.456451,-89.493831,-17.584653,-3.7438,Sitting
604,2021-02-15 13:50:51.873,0.571811,3.037633,9.483828,0.023796,0.015939,-0.008691,-22.29001,-7.445385,-40.59021,-89.465598,-17.571952,-3.753604,Sitting
605,2021-02-15 13:50:51.924,0.58648,3.03913,9.466913,0.006616,0.003109,-0.004906,-22.324005,-7.583199,-40.604614,-89.452486,-17.581312,-3.739743,Sitting
606,2021-02-15 13:50:51.974,0.638422,2.971321,9.450747,0.019878,0.014102,-0.010103,-22.2679,-7.674854,-40.610657,-89.45313,-17.603024,-3.744921,Sitting
607,2021-02-15 13:50:52.024,0.619562,3.018323,9.511221,0.02233,0.010243,0.00135,-22.326387,-7.553087,-40.411743,-89.434667,-17.646645,-3.722003,Sitting
608,2021-02-15 13:50:52.074,0.707429,2.982697,9.464219,0.016819,0.015447,-0.019912,-22.319664,-7.633919,-40.629669,-89.455456,-17.665878,-3.726864,Sitting
609,2021-02-15 13:50:52.124,0.63004,3.024461,9.394015,-0.005344,0.004232,-0.02231,-22.187479,-7.525078,-40.71698,-89.457942,-17.70286,-3.688732,Sitting
610,2021-02-15 13:50:52.175,0.546663,3.071912,9.468111,0.010467,0.000546,-0.00928,-22.253939,-7.63203,-40.666626,-89.435606,-17.688887,-3.707524,Sitting
611,2021-02-15 13:50:52.225,0.612826,3.038382,9.447753,0.004333,0.006832,-0.006656,-22.276506,-7.638035,-40.624176,-89.407294,-17.691414,-3.725184,Sitting
612,2021-02-15 13:50:52.275,0.621807,3.041824,9.432186,-0.002517,0.001994,-0.013724,-22.450197,-7.561401,-40.473083,-89.408772,-17.693691,-3.741082,Sitting
613,2021-02-15 13:50:52.325,0.635279,3.013683,9.421258,0.010732,0.007725,-0.006322,-22.305986,-7.625566,-40.330292,-89.393988,-17.710376,-3.72537,Sitting
614,2021-02-15 13:50:52.375,0.665815,3.029101,9.469308,0.00242,0.007648,-0.016514,-22.236858,-7.660473,-40.700256,-89.385038,-17.712508,-3.734085,Sitting
615,2021-02-15 13:50:52.426,0.618663,2.996918,9.440868,0.009617,-0.00736,-0.019273,-22.294256,-7.569916,-40.446411,-89.378778,-17.713379,-3.734635,Sitting
616,2021-02-15 13:50:52.476,0.618813,3.024161,9.45913,-0.008763,0.008592,-0.008947,-22.362713,-7.482231,-40.519562,-89.354298,-17.727335,-3.752398,Sitting
617,2021-02-15 13:50:52.526,0.597857,3.054698,9.515712,0.026921,-0.033131,-0.009394,-22.277281,-7.509945,-40.349213,-89.346053,-17.701529,-3.779036,Sitting
618,2021-02-15 13:50:52.576,0.595013,3.036885,9.402996,0.006897,0.020771,-0.00667,-22.365053,-7.549646,-40.511078,-89.352167,-17.726763,-3.812268,Sitting
619,2021-02-15 13:50:52.626,0.59636,3.053351,9.489067,0.008442,-0.002788,-0.004589,-22.387535,-7.502609,-40.645477,-89.348153,-17.726086,-3.801678,Sitting
620,2021-02-15 13:50:52.677,0.684676,2.976111,9.425599,0.011049,0.009341,-0.013928,-22.328747,-7.401785,-40.436218,-89.379196,-17.742775,-3.794196,Sitting
621,2021-02-15 13:50:52.727,0.630639,3.027454,9.489816,0.010019,0.002364,-0.009232,-22.279186,-7.682331,-40.553955,-89.391925,-17.762948,-3.804104,Sitting
622,2021-02-15 13:50:52.777,0.636027,3.054249,9.405541,0.005245,0.00428,-0.009199,-22.385166,-7.713989,-40.59201,-89.392498,-17.767507,-3.807473,Sitting
623,2021-02-15 13:50:52.827,0.631088,3.071014,9.453591,-0.001022,-0.009313,-0.016137,-22.374767,-7.454243,-40.49884,-89.410632,-17.778684,-3.825446,Sitting
624,2021-02-15 13:50:52.878,0.618065,3.038082,9.442963,0.007181,-0.000213,-0.008429,-22.406439,-7.43384,-40.74115,-89.41012,-17.757215,-3.852538,Sitting
625,2021-02-15 13:50:52.928,0.643063,3.036136,9.466764,0.008768,-0.001983,-0.013596,-22.450386,-7.488117,-40.570709,-89.4159,-17.774046,-3.883979,Sitting
626,2021-02-15 13:50:52.978,0.632734,3.038232,9.435778,0.001346,-0.009316,-0.005936,-22.380774,-7.567274,-40.70285,-89.426395,-17.785013,-3.886974,Sitting
627,2021-02-15 13:50:53.028,0.688718,3.054249,9.415421,-0.003649,0.000872,-0.015144,-22.261749,-7.603271,-40.548553,-89.421219,-17.788098,-3.905844,Sitting
628,2021-02-15 13:50:53.078,0.645607,3.052901,9.48802,0.002596,-0.01338,-0.015042,-22.372149,-7.739742,-40.536438,-89.426741,-17.768702,-3.937038,Sitting
629,2021-02-15 13:50:53.129,0.669258,3.018922,9.387279,-0.004461,-0.003641,-0.012918,-22.515615,-7.623974,-40.381287,-89.396622,-17.745964,-3.962137,Sitting
630,2021-02-15 13:50:53.179,0.633632,3.051854,9.465417,0.002952,-0.003104,-0.014645,-22.56658,-7.541237,-40.351166,-89.380986,-17.73361,-4.010629,Sitting
631,2021-02-15 13:50:53.229,0.676294,3.000061,9.407786,-0.007326,-0.015493,-0.007761,-22.541706,-7.648542,-40.531525,-89.357845,-17.729241,-4.021559,Sitting
632,2021-02-15 13:50:53.279,0.732876,2.990032,9.510772,-0.006061,-0.0177,-0.02553,-22.556641,-7.723925,-40.504303,-89.384941,-17.713854,-4.063659,Sitting
633,2021-02-15 13:50:53.329,0.639919,3.077151,9.442514,0.00173,-0.017415,-0.015292,-22.618835,-7.478933,-40.508179,-89.358683,-17.671882,-4.106959,Sitting
634,2021-02-15 13:50:53.380,0.651745,3.000061,9.421857,0.003551,0.000768,-0.0075,-22.837204,-7.518351,-40.3797,-89.335155,-17.643327,-4.154487,Sitting
635,2021-02-15 13:50:53.430,0.725092,2.981201,9.503587,-0.003471,-0.001756,-0.0185,-22.781633,-7.435398,-40.542877,-89.363248,-17.623412,-4.169166,Sitting
636,2021-02-15 13:50:53.480,0.704734,2.97207,9.430539,0.003657,0.018617,-0.009035,-22.660828,-7.550741,-40.599152,-89.357114,-17.640036,-4.17698,Sitting
637,2021-02-15 13:50:53.530,0.674348,3.016677,9.464219,0.009339,0.020846,-0.004432,-22.632681,-7.59787,-40.606903,-89.354104,-17.63298,-4.158352,Sitting
638,2021-02-15 13:50:53.580,0.666264,3.041375,9.426048,-0.00105,0.015755,-0.004682,-22.721918,-7.641182,-40.390411,-89.370851,-17.623212,-4.134561,Sitting
639,2021-02-15 13:50:53.631,0.697699,3.009641,9.456136,0.009386,0.006391,-0.006475,-22.629503,-7.627989,-40.551208,-89.387636,-17.622536,-4.109487,Sitting
640,2021-02-15 13:50:53.681,0.714913,2.991978,9.482032,0.006948,0.012399,-0.017325,-22.818426,-7.453449,-40.437347,-89.410265,-17.631591,-4.104165,Sitting
641,2021-02-15 13:50:53.731,0.662223,3.021018,9.391919,-0.008884,0.018953,-0.007347,-22.683323,-7.371941,-40.319672,-89.39982,-17.630573,-4.086102,Sitting
642,2021-02-15 13:50:53.781,0.70189,3.005899,9.513167,0.019642,0.024582,-0.023506,-22.788612,-7.340136,-40.551544,-89.428388,-17.622682,-4.082576,Sitting
643,2021-02-15 13:50:53.831,0.695304,2.987937,9.370813,-0.013578,0.000312,-0.021401,-22.669481,-7.520128,-40.290771,-89.402459,-17.645639,-4.030037,Sitting
644,2021-02-15 13:50:53.882,0.659529,3.014431,9.533675,0.007775,0.017811,-0.024445,-22.657162,-7.506977,-40.543457,-89.376665,-17.636888,-4.02592,Sitting
645,2021-02-15 13:50:53.932,0.562081,3.080893,9.470805,0.006117,0.009688,-0.001453,-22.657236,-7.410204,-40.607086,-89.353491,-17.610691,-3.999627,Sitting
646,2021-02-15 13:50:53.982,0.670456,2.936144,9.457034,0.01484,0.004,-0.006969,-22.700367,-7.360886,-40.599609,-89.366156,-17.627535,-3.991251,Sitting
647,2021-02-15 13:50:54.032,0.650397,3.054997,9.466464,0.002343,0.013345,0.003294,-22.570841,-7.62468,-40.61142,-89.383067,-17.648046,-3.970658,Sitting
648,2021-02-15 13:50:54.082,0.707878,3.069667,9.494756,0.027008,0.037732,-0.011235,-22.616713,-7.516443,-40.518799,-89.405116,-17.644979,-3.965033,Sitting
649,2021-02-15 13:50:54.133,0.564476,3.049309,9.501192,0.007552,0.011902,0.008416,-22.493917,-7.600145,-40.423004,-89.410547,-17.664531,-3.91251,Sitting
650,2021-02-15 13:50:54.183,0.743953,2.997217,9.394913,0.013781,0.007342,-0.012701,-22.386789,-7.748783,-40.767242,-89.440562,-17.713415,-3.915742,Sitting
651,2021-02-15 13:50:54.233,0.672551,3.024461,9.44461,-0.017999,-0.017177,-0.022179,-22.594854,-7.58581,-40.589447,-89.441116,-17.758932,-3.930469,Sitting
652,2021-02-15 13:50:54.283,0.623603,3.063829,9.358239,0.016003,0.003251,-0.013166,-22.556808,-7.751501,-40.432617,-89.405011,-17.716002,-3.960686,Sitting
653,2021-02-15 13:50:54.333,0.652194,3.106939,9.511521,-0.010422,0.006799,-0.009936,-22.656288,-7.659269,-40.505432,-89.351791,-17.723995,-3.987844,Sitting
654,2021-02-15 13:50:54.384,0.579146,2.999912,9.43024,0.000364,-0.003193,-0.013294,-22.477823,-7.745275,-40.397491,-89.336006,-17.674192,-3.994308,Sitting
655,2021-02-15 13:50:54.434,0.595911,3.018024,9.414971,-0.021624,0.010462,0.001625,-22.413252,-7.889862,-40.458557,-89.287954,-17.712837,-3.981272,Sitting
656,2021-02-15 13:50:54.484,0.705633,2.967729,9.550739,0.014973,0.017754,-0.013732,-22.528395,-7.46748,-40.7034,-89.302521,-17.654294,-3.965407,Sitting
657,2021-02-15 13:50:54.534,0.705483,3.007546,9.426048,0.005287,0.02383,-0.01328,-22.570646,-7.579029,-40.314758,-89.321775,-17.657,-3.937486,Sitting
658,2021-02-15 13:50:54.584,0.658481,3.040926,9.427845,-0.007746,0.010888,-0.015377,-22.498869,-7.566706,-40.224792,-89.310386,-17.640588,-3.883668,Sitting
659,2021-02-15 13:50:54.635,0.603994,2.979255,9.565109,0.007709,0.016025,-0.013553,-22.468966,-7.404421,-40.323639,-89.309091,-17.617372,-3.850335,Sitting
660,2021-02-15 13:50:54.685,0.582289,2.965783,9.450448,0.003472,0.0074,-0.006343,-22.452946,-7.581629,-40.570923,-89.295518,-17.589948,-3.827624,Sitting
661,2021-02-15 13:50:54.735,0.614622,3.016677,9.499546,0.011354,0.00656,-0.012853,-22.467808,-7.573318,-40.506897,-89.294939,-17.60692,-3.824822,Sitting
662,2021-02-15 13:50:54.785,0.64456,2.979554,9.488169,0.002722,0.021246,-0.002756,-22.514051,-7.310629,-40.847443,-89.303411,-17.598109,-3.806333,Sitting
663,2021-02-15 13:50:54.835,0.571512,3.069068,9.441915,0.010298,0.014493,-0.002071,-22.245682,-7.790939,-40.323639,-89.31919,-17.572475,-3.770643,Sitting
664,2021-02-15 13:50:54.886,0.679138,2.95755,9.50688,0.017063,0.009887,-0.006704,-22.416134,-7.507942,-40.399017,-89.322074,-17.588382,-3.749917,Sitting
665,2021-02-15 13:50:54.936,0.601599,2.990032,9.408086,-0.009949,0.015814,-0.018214,-22.365473,-7.497343,-40.690308,-89.339228,-17.620183,-3.74295,Sitting
666,2021-02-15 13:50:54.986,0.537832,3.056494,9.447903,0.019499,0.014937,0.000435,-22.297939,-7.466227,-40.56543,-89.327254,-17.614886,-3.723395,Sitting
667,2021-02-15 13:50:55.036,0.653391,3.078798,9.490714,-0.003588,0.015517,-0.009508,-22.327888,-7.572781,-40.506561,-89.327445,-17.620576,-3.710015,Sitting
668,2021-02-15 13:50:55.087,0.510439,3.031346,9.437874,0.008841,0.019835,-0.018172,-22.188957,-7.610998,-40.788086,-89.335642,-17.596029,-3.677698,Sitting
669,2021-02-15 13:50:55.137,0.530946,3.01533,9.469458,0.000613,0.018231,-0.005464,-22.321524,-7.455551,-40.651154,-89.332109,-17.637305,-3.623257,Sitting
670,2021-02-15 13:50:55.187,0.575403,3.030897,9.450597,0.000393,0.024866,-0.012266,-22.184425,-7.428251,-40.891724,-89.364496,-17.6055,-3.597254,Sitting
671,2021-02-15 13:50:55.237,0.564177,3.00051,9.479936,-0.001637,0.011292,-0.000776,-22.351654,-7.395777,-40.583801,-89.376145,-17.606748,-3.542121,Sitting
672,2021-02-15 13:50:55.287,0.60579,2.994822,9.461225,0.002997,0.017278,-0.012221,-22.177341,-7.456322,-40.730713,-89.394271,-17.580803,-3.507484,Sitting
673,2021-02-15 13:50:55.338,0.556543,2.995571,9.457333,-0.003975,0.011086,-0.012888,-22.266708,-7.442526,-40.555542,-89.401914,-17.576252,-3.491479,Sitting
674,2021-02-15 13:50:55.388,0.57211,2.998115,9.522149,0.013545,0.007181,-0.012955,-22.089575,-7.593351,-40.819061,-89.400715,-17.56645,-3.477399,Sitting
675,2021-02-15 13:50:55.438,0.559686,2.987487,9.388926,-0.011312,0.02188,-0.00435,-22.217632,-7.440136,-40.750092,-89.376396,-17.561045,-3.474923,Sitting
676,2021-02-15 13:50:55.488,0.518821,3.031346,9.560918,0.021799,0.009809,-0.004788,-22.170286,-7.413939,-40.604279,-89.403612,-17.541376,-3.451791,Sitting
677,2021-02-15 13:50:55.538,0.56268,2.979105,9.442963,0.002674,0.012069,-0.004397,-22.254496,-7.417814,-40.830933,-89.391122,-17.553219,-3.42814,Sitting
678,2021-02-15 13:50:55.589,0.559237,3.046165,9.484876,0.015555,0.020389,-0.011531,-22.09823,-7.459358,-40.757721,-89.418248,-17.563385,-3.430255,Sitting
679,2021-02-15 13:50:55.639,0.546813,2.996768,9.463471,0.009365,0.010554,-0.002905,-22.098124,-7.611761,-40.697968,-89.405208,-17.575506,-3.377103,Sitting
680,2021-02-15 13:50:55.689,0.594115,2.982548,9.512718,0.016465,0.012116,-0.011469,-21.997145,-7.570145,-40.75943,-89.423933,-17.593487,-3.374379,Sitting
681,2021-02-15 13:50:55.739,0.473765,3.018922,9.403296,0.000565,0.00895,-0.002749,-22.11463,-7.129128,-40.870636,-89.45102,-17.615498,-3.354695,Sitting
682,2021-02-15 13:50:55.789,0.63483,3.027454,9.535022,0.009658,0.020773,-0.016232,-21.977274,-7.437084,-40.754364,-89.461205,-17.632058,-3.333163,Sitting
683,2021-02-15 13:50:55.840,0.473615,3.009941,9.402398,0.002516,0.009723,-0.00596,-22.144972,-7.415346,-40.653595,-89.479602,-17.594751,-3.322358,Sitting
684,2021-02-15 13:50:55.890,0.594414,3.035238,9.499246,0.008664,0.010809,-0.018305,-21.950159,-7.457605,-40.613281,-89.466944,-17.622621,-3.293087,Sitting
685,2021-02-15 13:50:55.940,0.51448,2.992577,9.433683,0.002975,0.010017,-0.017046,-22.078716,-7.466894,-40.818604,-89.46902,-17.609848,-3.288526,Sitting
686,2021-02-15 13:50:55.990,0.536035,2.994373,9.517658,-9.4e-05,0.016454,-0.010933,-22.10552,-7.426121,-40.825409,-89.449524,-17.633932,-3.260218,Sitting
687,2021-02-15 13:50:56.040,0.565524,2.975662,9.429042,0.003318,0.034911,-0.022908,-22.011391,-7.586163,-40.891022,-89.443532,-17.619744,-3.244413,Sitting
688,2021-02-15 13:50:56.091,0.431702,2.998415,9.512419,0.003622,0.033262,-0.003768,-21.931967,-7.479448,-40.835754,-89.441472,-17.631293,-3.185368,Sitting
689,2021-02-15 13:50:56.141,0.497865,2.974764,9.506132,0.01878,0.021766,-0.006412,-21.672565,-7.537647,-40.873718,-89.43642,-17.619,-3.077382,Sitting
690,2021-02-15 13:50:56.191,0.50475,3.033442,9.469458,0.001878,0.024001,-0.011708,-21.832682,-7.447958,-40.858948,-89.485248,-17.651954,-3.055898,Sitting
691,2021-02-15 13:50:56.241,0.52421,3.039879,9.379795,-0.004403,0.0143,-0.007702,-21.788273,-7.310141,-40.784851,-89.49847,-17.65237,-2.980201,Sitting
692,2021-02-15 13:50:56.291,0.528251,2.979105,9.489367,0.00573,0.010757,-0.016271,-21.820293,-7.532524,-40.712708,-89.491551,-17.636456,-2.969498,Sitting
693,2021-02-15 13:50:56.342,0.4808,3.012635,9.483679,-0.009982,0.015823,-0.017867,-21.874985,-7.603832,-40.987366,-89.504044,-17.640243,-2.94015,Sitting
694,2021-02-15 13:50:56.392,0.371827,3.035987,9.452394,0.003416,0.024559,0.005761,-21.746721,-7.707523,-40.778107,-89.457083,-17.609025,-2.93746,Sitting
695,2021-02-15 13:50:56.442,0.478106,3.05365,9.453142,0.0037,0.024119,-0.006291,-21.650005,-7.644743,-40.784119,-89.451191,-17.604315,-2.886749,Sitting
696,2021-02-15 13:50:56.492,0.419577,2.984194,9.356892,-0.026301,0.019369,0.008991,-21.745844,-7.540316,-40.716156,-89.473587,-17.596158,-2.846168,Sitting
697,2021-02-15 13:50:56.542,0.499212,2.944826,9.629326,0.013303,0.047897,-0.002735,-21.644653,-7.487762,-40.887115,-89.482096,-17.550927,-2.797418,Sitting
698,2021-02-15 13:50:56.593,0.42781,2.911595,9.443861,0.003665,0.013679,-0.010943,-21.677208,-7.490986,-41.057068,-89.509516,-17.511678,-2.725202,Sitting
699,2021-02-15 13:50:56.643,0.460443,2.998864,9.389524,-0.036822,0.006751,-0.000791,-21.759876,-7.327017,-40.913788,-89.509165,-17.531303,-2.649357,Sitting
700,2021-02-15 13:50:56.693,0.468526,2.980751,9.547147,-0.016099,0.022979,-0.005128,-21.651949,-7.252548,-40.93988,-89.522529,-17.439904,-2.663455,Sitting
701,2021-02-15 13:50:56.743,0.389041,2.972818,9.387129,-0.044816,0.004246,-0.003064,-21.535366,-7.363628,-40.842896,-89.523749,-17.332706,-2.62638,Sitting
702,2021-02-15 13:50:56.793,0.414488,2.87073,9.510623,-0.036687,0.015069,0.000246,-21.433187,-7.121683,-41.143311,-89.543645,-17.262119,-2.614315,Sitting
703,2021-02-15 13:50:56.844,0.457,2.892735,9.442365,-0.045989,0.012241,0.002375,-21.459166,-7.075529,-41.025696,-89.587816,-17.13251,-2.649375,Sitting
704,2021-02-15 13:50:56.894,0.438738,2.854115,9.655821,0.004837,0.030992,-0.006844,-21.513094,-6.872616,-40.971497,-89.628537,-17.032059,-2.625185,Sitting
705,2021-02-15 13:50:56.944,0.349523,2.910248,9.392069,-0.015169,0.039755,0.009926,-21.469418,-6.878372,-41.051239,-89.659399,-16.968268,-2.56804,Sitting
706,2021-02-15 13:50:56.994,0.378263,2.92851,9.565259,-0.004054,0.047423,-0.001604,-21.532707,-6.874346,-40.982819,-89.706727,-16.936023,-2.512362,Sitting
707,2021-02-15 13:50:57.045,0.436043,2.85187,9.530681,-0.012862,0.04649,0.001405,-21.289057,-6.788286,-41.21109,-89.743175,-16.875351,-2.382682,Sitting
708,2021-02-15 13:50:57.095,0.36524,2.96698,9.341325,-0.046437,0.012913,-0.011635,-21.289145,-6.589655,-41.03656,-89.802999,-16.816956,-2.29438,Sitting
709,2021-02-15 13:50:57.145,0.36539,2.853815,9.590556,-0.028185,0.012849,-0.012466,-21.129059,-6.756393,-41.204651,-89.816939,-16.78364,-2.276354,Sitting
710,2021-02-15 13:50:57.195,0.356858,2.83226,9.420959,-0.063185,0.029626,0.001741,-21.000689,-6.657511,-41.101532,-89.800715,-16.655027,-2.250875,Sitting
711,2021-02-15 13:50:57.245,0.321382,2.872377,9.654174,0.002231,0.037767,-0.012984,-21.144009,-6.445444,-41.057739,-89.825063,-16.537092,-2.22179,Sitting
712,2021-02-15 13:50:57.296,0.255369,2.792593,9.576186,0.001631,0.010441,0.008719,-21.063732,-6.360189,-41.052521,-89.843249,-16.456073,-2.134131,Sitting
713,2021-02-15 13:50:57.346,0.417182,2.705175,9.564061,-0.018367,0.054616,-0.001395,-20.972151,-6.480368,-41.317291,-89.881862,-16.465922,-2.097451,Sitting
714,2021-02-15 13:50:57.396,0.274828,2.713557,9.610166,0.022944,0.033903,0.007654,-20.95137,-6.328011,-41.225555,-89.929867,-16.379442,-2.03063,Sitting
715,2021-02-15 13:50:57.446,0.407602,2.787952,9.488469,-0.02955,0.012757,-0.01012,-20.81126,-6.306299,-41.25766,-89.981244,-16.424151,-1.901964,Sitting
716,2021-02-15 13:50:57.496,0.285606,2.727628,9.605226,-0.003503,0.055021,-0.005894,-20.914433,-6.164856,-41.172974,-90.038458,-16.3483,-1.903369,Sitting
717,2021-02-15 13:50:57.547,0.286804,2.783312,9.671089,0.039887,0.052575,-0.0063,-20.791067,-6.26716,-41.112915,-90.058119,-16.254483,-1.7672,Sitting
718,2021-02-15 13:50:57.597,0.237855,2.83226,9.422456,0.016012,0.045829,-0.00031,-20.67128,-6.183544,-41.347626,-90.094259,-16.272536,-1.686494,Sitting
719,2021-02-15 13:50:57.647,0.242496,2.762505,9.456136,-0.032118,-0.007193,-2.3e-05,-20.608568,-6.325605,-41.510223,-90.125995,-16.397799,-1.578465,Sitting
720,2021-02-15 13:50:57.697,0.157173,2.863246,9.630374,-0.016332,-0.004997,0.015508,-20.641666,-6.251217,-41.513,-90.152549,-16.315773,-1.561929,Sitting
721,2021-02-15 13:50:57.747,0.262255,2.710713,9.528585,-0.018133,-0.01677,0.003112,-20.601242,-6.14797,-41.431427,-90.18491,-16.241373,-1.603765,Sitting
722,2021-02-15 13:50:57.798,0.323328,2.737807,9.698931,0.006989,0.008045,-0.003973,-20.630877,-6.274115,-41.60199,-90.235193,-16.191024,-1.655669,Sitting
723,2021-02-15 13:50:57.848,0.216899,2.748285,9.619746,0.03805,-0.012161,-0.015315,-20.570425,-6.20488,-41.604156,-90.265705,-16.143375,-1.684949,Sitting
724,2021-02-15 13:50:57.898,0.300126,2.798431,9.484128,-0.009922,0.000425,-0.010106,-20.863497,-6.003424,-41.485077,-90.263682,-16.225916,-1.655217,Sitting
725,2021-02-15 13:50:57.948,0.231568,2.805616,9.623039,0.04512,0.019283,-0.013831,-20.810793,-6.134754,-41.425079,-90.271716,-16.177228,-1.747263,Sitting
726,2021-02-15 13:50:57.998,0.242945,2.812202,9.424252,-0.007591,-0.00429,0.002975,-20.670416,-6.225092,-41.343048,-90.237063,-16.266996,-1.683383,Sitting
727,2021-02-15 13:50:58.049,0.357906,2.745141,9.695638,0.021609,0.012528,-0.017221,-20.661755,-6.269045,-41.255432,-90.262466,-16.277805,-1.698896,Sitting
728,2021-02-15 13:50:58.099,0.205822,2.791695,9.465716,0.021017,0.006255,-0.007,-20.69969,-6.113596,-41.391663,-90.265761,-16.266978,-1.692916,Sitting
729,2021-02-15 13:50:58.149,0.327968,2.819537,9.508377,0.000238,7.6e-05,-0.000333,-20.643408,-6.387825,-41.291779,-90.276447,-16.36511,-1.684142,Sitting
730,2021-02-15 13:50:58.199,0.318538,2.809358,9.610914,0.012198,0.013011,-0.019461,-20.788221,-6.414679,-41.211761,-90.308768,-16.33062,-1.726052,Sitting
731,2021-02-15 13:50:58.249,0.213007,2.792593,9.472452,-0.007667,-0.00848,-0.010001,-20.655046,-6.390339,-41.489075,-90.282509,-16.333359,-1.705258,Sitting
732,2021-02-15 13:50:58.300,0.323926,2.854414,9.639055,0.023092,0.007146,-0.017295,-20.736563,-6.176365,-41.542908,-90.2744,-16.329283,-1.735448,Sitting
733,2021-02-15 13:50:58.350,0.258063,2.796036,9.452992,-0.017573,-0.015576,-0.006823,-20.80031,-6.19553,-41.645264,-90.27351,-16.317793,-1.745121,Sitting
734,2021-02-15 13:50:58.400,0.306862,2.745141,9.694141,0.034418,0.02653,-0.023653,-20.830244,-6.34248,-41.476044,-90.274208,-16.326466,-1.75924,Sitting
735,2021-02-15 13:50:58.450,0.189207,2.791994,9.414373,-0.005597,-0.011094,0.005792,-20.848867,-6.171637,-41.530334,-90.249549,-16.326445,-1.737244,Sitting
736,2021-02-15 13:50:58.500,0.390089,2.785258,9.616003,0.010641,-0.015964,-0.017663,-20.741793,-6.246828,-41.585571,-90.285687,-16.3744,-1.742573,Sitting
737,2021-02-15 13:50:58.551,0.279619,2.867886,9.455986,-0.00308,-0.009277,-0.00465,-20.80246,-6.119427,-41.25293,-90.284447,-16.311892,-1.76049,Sitting
738,2021-02-15 13:50:58.601,0.315394,2.767744,9.538764,-0.001746,0.014495,-0.020346,-20.81307,-6.398462,-41.384186,-90.2532,-16.312927,-1.790474,Sitting
739,2021-02-15 13:50:58.651,0.212408,2.825674,9.529633,0.010884,0.008889,-0.009845,-20.861988,-6.25856,-41.403168,-90.24006,-16.283259,-1.811156,Sitting
740,2021-02-15 13:50:58.701,0.339195,2.825973,9.571696,0.040929,0.045435,-0.017413,-20.856798,-6.289639,-41.375458,-90.220988,-16.32333,-1.79189,Sitting
741,2021-02-15 13:50:58.751,0.253573,2.880161,9.50688,0.022093,0.021492,-0.010492,-20.799181,-6.394054,-41.295013,-90.211471,-16.362901,-1.767758,Sitting
742,2021-02-15 13:50:58.802,0.325423,2.748285,9.532028,0.03353,0.012091,-0.018513,-20.76366,-6.454212,-41.417358,-90.209185,-16.455698,-1.660705,Sitting
743,2021-02-15 13:50:58.852,0.206421,2.827321,9.456884,-0.016556,0.004934,0.009039,-20.775858,-6.459415,-41.209869,-90.188259,-16.526317,-1.673986,Sitting
744,2021-02-15 13:50:58.902,0.36539,2.838248,9.690548,0.023492,0.00012,-0.013519,-20.683306,-6.496752,-41.301483,-90.190837,-16.530404,-1.641063,Sitting
745,2021-02-15 13:50:58.952,0.222587,2.819686,9.41078,-0.001641,0.006352,-0.012193,-20.738283,-6.493214,-41.579193,-90.215205,-16.516439,-1.691346,Sitting
746,2021-02-15 13:50:59.002,0.279768,2.892435,9.614357,0.011306,-0.007346,-0.003018,-20.61648,-6.379074,-41.455597,-90.170925,-16.523551,-1.654696,Sitting
747,2021-02-15 13:50:59.053,0.329914,2.833907,9.471254,-0.000761,0.004932,-0.021734,-20.646601,-6.499315,-41.476349,-90.217412,-16.514423,-1.705447,Sitting
748,2021-02-15 13:50:59.103,0.239203,2.818938,9.540111,0.006018,0.007162,-0.002322,-20.731783,-6.252424,-41.394775,-90.211106,-16.524886,-1.702295,Sitting
749,2021-02-15 13:50:59.153,0.271835,2.81325,9.589509,0.020198,0.017117,-0.003376,-20.701164,-6.351851,-41.429871,-90.207899,-16.541279,-1.706694,Sitting
750,2021-02-15 13:50:59.203,0.285905,2.862048,9.476044,0.011837,-0.004005,-0.02168,-20.822884,-6.294025,-41.225067,-90.240821,-16.548924,-1.710031,Sitting
751,2021-02-15 13:50:59.254,0.263452,2.859803,9.506431,-0.002419,0.000358,-0.006574,-20.776239,-6.417501,-41.437286,-90.21031,-16.590991,-1.693407,Sitting
752,2021-02-15 13:50:59.304,0.292192,2.864144,9.585467,0.016127,0.01191,-0.022422,-20.807285,-6.579556,-41.204041,-90.201571,-16.573012,-1.715587,Sitting
753,2021-02-15 13:50:59.354,0.232467,2.860402,9.461674,0.007488,0.002471,-0.005343,-20.679283,-6.468853,-41.211487,-90.171031,-16.592336,-1.711145,Sitting
754,2021-02-15 13:50:59.404,0.346978,2.796634,9.623787,0.008273,0.017009,-0.011097,-20.700974,-6.509201,-41.421509,-90.169928,-16.625038,-1.700945,Sitting
755,2021-02-15 13:50:59.454,0.244741,2.902464,9.495055,0.018501,0.013101,-0.010247,-20.700031,-6.470949,-41.219666,-90.184117,-16.607175,-1.694697,Sitting
756,2021-02-15 13:50:59.505,0.291594,2.802323,9.556727,0.011727,0.005129,-0.016116,-20.676506,-6.369949,-41.230072,-90.176064,-16.66884,-1.651456,Sitting
757,2021-02-15 13:50:59.555,0.2404,2.842589,9.53592,0.012639,0.000234,-0.002542,-20.622313,-6.675617,-41.214813,-90.17008,-16.649814,-1.678104,Sitting
758,2021-02-15 13:50:59.605,0.330812,2.848876,9.587712,0.0269,0.012145,-0.018485,-20.654434,-6.685547,-41.422363,-90.174696,-16.704804,-1.658124,Sitting
759,2021-02-15 13:50:59.655,0.325872,2.851271,9.387578,-0.015693,0.001082,-0.009718,-20.610369,-6.875097,-41.154724,-90.156767,-16.711337,-1.653437,Sitting
760,2021-02-15 13:50:59.705,0.273631,2.886897,9.653875,0.020936,0.008366,-0.025174,-20.60923,-6.539486,-41.409698,-90.145983,-16.721043,-1.664799,Sitting
761,2021-02-15 13:50:59.756,0.228425,2.869682,9.369616,-0.011649,-0.013658,-0.01541,-20.757143,-6.499655,-41.256378,-90.141809,-16.721586,-1.669248,Sitting
762,2021-02-15 13:50:59.806,0.28366,2.900668,9.624386,0.020646,0.005051,-0.015348,-20.749714,-6.345366,-41.349121,-90.13155,-16.727359,-1.726724,Sitting
763,2021-02-15 13:50:59.856,0.236808,2.838996,9.456585,6e-06,0.008993,-0.000785,-20.679646,-6.575613,-41.222198,-90.118867,-16.717658,-1.719081,Sitting
764,2021-02-15 13:50:59.906,0.340242,2.850822,9.606423,0.027376,0.01034,-0.012734,-20.79809,-6.49357,-41.278687,-90.125723,-16.748353,-1.719279,Sitting
765,2021-02-15 13:50:59.956,0.296683,2.837948,9.494007,0.011123,-0.000107,-0.012259,-20.708075,-6.521955,-41.216064,-90.146875,-16.766537,-1.703583,Sitting
766,2021-02-15 13:51:00.007,0.24534,2.89498,9.518107,0.009244,0.006082,-0.013329,-20.736326,-6.567272,-41.289093,-90.150345,-16.801529,-1.703524,Sitting
767,2021-02-15 13:51:00.057,0.237107,2.927013,9.543404,0.020078,0.009546,-0.006262,-20.771128,-6.435026,-41.08493,-90.15437,-16.798827,-1.720989,Sitting
768,2021-02-15 13:51:00.107,0.280068,2.866988,9.417217,-0.006706,0.019412,-0.004471,-20.729113,-6.606833,-41.130096,-90.160764,-16.837805,-1.728167,Sitting
769,2021-02-15 13:51:00.157,0.271984,2.893483,9.590107,0.028279,0.013478,-0.003702,-20.751789,-6.397213,-41.024963,-90.186294,-16.841352,-1.724185,Sitting
770,2021-02-15 13:51:00.207,0.323926,2.936444,9.477541,0.010595,0.020665,-0.012226,-20.684399,-6.728909,-41.215454,-90.19567,-16.888658,-1.695056,Sitting
771,2021-02-15 13:51:00.258,0.281564,2.920277,9.489217,0.002513,-0.003844,-0.010849,-20.569548,-6.639622,-41.04422,-90.193854,-16.907237,-1.672309,Sitting
772,2021-02-15 13:51:00.308,0.289797,2.868635,9.562265,0.013945,0.008777,-0.012369,-20.682941,-6.728319,-41.26355,-90.197205,-16.92459,-1.667031,Sitting
